time	DeviceName	AccX(g)	AccY(g)	AccZ(g)	AsX(°/s)	AsY(°/s)	AsZ(°/s)	AngleX(°)	AngleY(°)	AngleZ(°)	HX(uT)	HY(uT)	HZ(uT)	Q0()	Q1()	Q2()	Q3()	Temperature(°C)	Version()	Battery level(%)
2024-12-26 11:50:26.411	WT901BLE68(96416FE28A17)	0.491	-0.425	0.807	0.671	-1.404	-5.798	-31.07	-25.58	-156.74	-19.992	-18.816	-29.008	-0.13528	0.26331	-0.21576	0.93042	23.3	13111	30
2024-12-26 11:50:26.502	WT901BLE68(96416FE28A17)	0.354	-0.454	0.883	-9.888	-4.272	0.610	-31.13	-25.89	-156.99	-19.992	-18.816	-29.008	-0.12808	0.26398	-0.21387	0.93170	23.3	13111	30
2024-12-26 11:50:26.621	WT901BLE68(96416FE28A17)	0.463	-0.453	0.797	-8.728	0.671	-6.104	-32.06	-26.09	-157.02	-19.992	-18.816	-29.008	-0.12808	0.26398	-0.21387	0.93170	23.3	13111	30
2024-12-26 11:50:26.685	WT901BLE68(96416FE28A17)	0.330	-0.456	0.825	-6.836	-0.671	-9.521	-32.10	-26.29	-158.12	-19.992	-18.620	-29.008	-0.12808	0.26398	-0.21387	0.93170	23.3	13111	30
2024-12-26 11:50:26.801	WT901BLE68(96416FE28A17)	0.492	-0.457	0.788	-6.287	-5.981	-19.653	-32.27	-27.39	-158.85	-19.992	-18.620	-29.008	-0.12808	0.26398	-0.21387	0.93170	23.3	13111	30
2024-12-26 11:50:26.890	WT901BLE68(96416FE28A17)	0.520	-0.408	0.794	2.441	7.019	-34.424	-31.01	-28.62	-161.70	-19.992	-18.620	-29.008	-0.07520	0.27518	-0.21469	0.93402	23.3	13111	30
2024-12-26 11:50:27.13	WT901BLE68(96416FE28A17)	0.445	-0.398	0.756	5.066	1.282	-24.414	-28.92	-29.26	-165.01	-19.992	-18.620	-29.008	-0.07520	0.27518	-0.21469	0.93402	23.3	13111	30
2024-12-26 11:50:27.101	WT901BLE68(96416FE28A17)	0.538	-0.377	0.668	22.278	-5.127	-25.513	-26.35	-30.16	-167.27	-18.718	-23.716	-29.400	-0.07520	0.27518	-0.21469	0.93402	23.3	13111	30
2024-12-26 11:50:27.222	WT901BLE68(96416FE28A17)	0.514	-0.285	0.801	39.246	-0.244	-26.855	-21.71	-31.20	-169.97	-18.718	-23.716	-29.400	-0.07520	0.27518	-0.21469	0.93402	23.3	13111	30
2024-12-26 11:50:27.312	WT901BLE68(96416FE28A17)	0.458	-0.221	0.847	40.222	6.409	-27.649	-16.34	-31.88	-172.86	-18.718	-23.716	-29.400	-0.01825	0.27911	-0.11356	0.95331	23.3	13111	30
2024-12-26 11:50:27.432	WT901BLE68(96416FE28A17)	0.417	-0.171	0.795	54.871	14.648	-31.433	-9.88	-31.46	-176.42	-18.718	-23.716	-29.400	-0.01825	0.27911	-0.11356	0.95331	23.3	13111	30
2024-12-26 11:50:27.491	WT901BLE68(96416FE28A17)	0.391	-0.079	0.850	77.942	19.470	-40.833	-1.13	-30.01	179.44	-12.936	-40.964	-25.676	-0.01825	0.27911	-0.11356	0.95331	23.3	13111	30
2024-12-26 11:50:27.611	WT901BLE68(96416FE28A17)	0.475	0.009	1.234	51.025	41.260	-36.560	6.93	-25.75	176.00	-12.936	-40.964	-25.676	-0.01825	0.27911	-0.11356	0.95331	23.3	13111	30
2024-12-26 11:50:27.701	WT901BLE68(96416FE28A17)	0.441	0.210	1.243	-13.367	38.513	-29.846	8.92	-21.08	173.20	-12.936	-40.964	-25.676	0.04498	0.18481	0.06464	0.97955	23.3	13111	30
2024-12-26 11:50:27.821	WT901BLE68(96416FE28A17)	0.333	0.223	1.164	-50.964	39.551	-13.000	5.47	-17.56	171.64	-12.936	-40.964	-25.676	0.04498	0.18481	0.06464	0.97955	23.3	13111	30
2024-12-26 11:50:27.911	WT901BLE68(96416FE28A17)	0.144	0.188	1.036	-50.720	45.288	-1.343	0.58	-13.96	170.69	0.686	-43.512	-28.420	0.04498	0.18481	0.06464	0.97955	23.3	13111	30
2024-12-26 11:50:28.32	WT901BLE68(96416FE28A17)	0.087	0.087	0.935	-32.776	37.598	-2.808	-3.24	-10.18	170.08	0.686	-43.512	-28.420	0.04498	0.18481	0.06464	0.97955	23.3	13111	30
2024-12-26 11:50:28.91	WT901BLE68(96416FE28A17)	0.022	0.052	0.858	-16.052	23.132	-4.639	-5.06	-7.51	168.87	0.686	-43.512	-28.420	0.10147	0.05707	-0.05133	0.99182	23.3	13111	30
2024-12-26 11:50:28.212	WT901BLE68(96416FE28A17)	-0.046	-0.005	0.871	6.897	24.841	-9.705	-4.88	-5.48	167.60	0.686	-43.512	-28.420	0.10147	0.05707	-0.05133	0.99182	23.3	13111	30
2024-12-26 11:50:28.300	WT901BLE68(96416FE28A17)	0.066	0.065	0.941	13.123	5.066	-24.414	-3.11	-3.84	165.44	10.290	-38.612	-31.556	0.10147	0.05707	-0.05133	0.99182	23.3	13111	30
2024-12-26 11:50:28.423	WT901BLE68(96416FE28A17)	0.038	0.066	0.913	-3.296	-19.897	-5.676	-2.33	-5.55	163.58	10.290	-38.612	-31.556	0.10147	0.05707	-0.05133	0.99182	23.3	13111	30
2024-12-26 11:50:28.541	WT901BLE68(96416FE28A17)	0.046	-0.017	1.009	11.108	10.193	2.014	-1.68	-5.33	163.75	10.290	-38.612	-31.556	0.14160	0.04108	-0.01633	0.98889	23.3	13111	30
2024-12-26 11:50:28.631	WT901BLE68(96416FE28A17)	0.037	0.004	1.081	4.578	-7.080	-4.333	-0.74	-5.04	163.54	10.290	-38.612	-31.556	0.14160	0.04108	-0.01633	0.98889	23.3	13111	30
2024-12-26 11:50:28.722	WT901BLE68(96416FE28A17)	0.030	0.010	1.067	-1.038	2.808	0.183	-0.55	-5.13	163.39	10.486	-39.788	-30.772	0.14160	0.04108	-0.01633	0.98889	23.3	13111	30
2024-12-26 11:50:28.841	WT901BLE68(96416FE28A17)	0.035	0.004	1.005	-3.052	-0.854	-1.404	-0.74	-4.91	163.36	10.486	-39.788	-30.772	0.14160	0.04108	-0.01633	0.98889	23.3	13111	30
2024-12-26 11:50:28.901	WT901BLE68(96416FE28A17)	0.046	0.014	0.984	3.418	1.160	-2.869	-0.61	-4.71	163.13	10.486	-39.788	-30.772	0.14737	0.03983	-0.01025	0.98819	23.3	13111	30
2024-12-26 11:50:29.23	WT901BLE68(96416FE28A17)	-0.012	0.025	1.017	5.188	-2.502	-4.333	-0.07	-4.75	162.74	10.486	-39.788	-30.772	0.14737	0.03983	-0.01025	0.98819	23.3	13111	30
2024-12-26 11:50:29.110	WT901BLE68(96416FE28A17)	0.007	0.035	1.054	6.897	16.968	-3.174	0.74	-3.53	162.42	11.662	-40.768	-30.086	0.14737	0.03983	-0.01025	0.98819	23.3	13111	30
2024-12-26 11:50:29.233	WT901BLE68(96416FE28A17)	0.009	0.041	1.031	6.042	7.202	-6.287	1.40	-2.53	161.97	11.662	-40.768	-30.086	0.14737	0.03983	-0.01025	0.98819	23.3	13111	30
2024-12-26 11:50:29.322	WT901BLE68(96416FE28A17)	-0.029	0.071	1.031	4.150	3.601	-0.854	2.02	-1.99	161.63	11.662	-40.768	-30.086	0.15881	0.01877	0.01587	0.98697	23.3	13111	30
2024-12-26 11:50:29.440	WT901BLE68(96416FE28A17)	-0.007	0.064	1.048	1.038	0.671	-1.526	2.25	-1.57	161.74	11.662	-40.768	-30.086	0.15881	0.01877	0.01587	0.98697	23.3	13111	30
2024-12-26 11:50:29.501	WT901BLE68(96416FE28A17)	-0.041	0.065	1.048	-2.075	-0.061	0.000	2.30	-1.50	161.57	13.426	-41.552	-29.302	0.15881	0.01877	0.01587	0.98697	23.3	13111	30
2024-12-26 11:50:29.621	WT901BLE68(96416FE28A17)	-0.022	0.056	1.019	-2.808	2.441	2.197	2.14	-1.07	161.77	13.426	-41.552	-29.302	0.15881	0.01877	0.01587	0.98697	23.3	13111	30
2024-12-26 11:50:29.712	WT901BLE68(96416FE28A17)	-0.031	0.063	0.989	0.000	-1.282	0.427	1.97	-1.04	161.87	13.426	-41.552	-29.302	0.15717	0.01151	0.01596	0.98734	23.3	13111	30
2024-12-26 11:50:29.832	WT901BLE68(96416FE28A17)	-0.015	0.076	1.007	2.686	-2.747	-0.305	2.24	-0.95	161.93	13.426	-41.552	-29.302	0.15717	0.01151	0.01596	0.98734	23.3	13111	30
2024-12-26 11:50:29.921	WT901BLE68(96416FE28A17)	-0.026	0.072	1.033	3.357	-2.075	-0.610	2.65	-1.05	161.87	13.622	-41.944	-28.812	0.15717	0.01151	0.01596	0.98734	23.3	13111	30
2024-12-26 11:50:30.40	WT901BLE68(96416FE28A17)	-0.011	0.077	1.061	2.625	-1.465	-0.916	3.07	-0.98	161.82	13.622	-41.944	-28.812	0.15717	0.01151	0.01596	0.98734	23.3	13111	30
2024-12-26 11:50:30.133	WT901BLE68(96416FE28A17)	-0.035	0.088	1.043	-0.488	-2.563	1.526	3.20	-1.18	161.81	13.622	-41.944	-28.812	0.15680	0.01495	0.02585	0.98712	23.3	13111	30
2024-12-26 11:50:30.251	WT901BLE68(96416FE28A17)	-0.025	0.081	1.023	0.244	-1.282	1.221	3.21	-1.20	162.05	13.622	-41.944	-28.812	0.15680	0.01495	0.02585	0.98712	23.3	13111	30
2024-12-26 11:50:30.311	WT901BLE68(96416FE28A17)	-0.025	0.089	1.034	-0.305	-1.770	0.977	3.31	-1.19	162.13	13.426	-42.434	-28.616	0.15680	0.01495	0.02585	0.98712	23.3	13111	30
2024-12-26 11:50:30.433	WT901BLE68(96416FE28A17)	-0.025	0.088	1.036	-1.038	0.427	1.282	3.35	-1.05	162.24	13.426	-42.434	-28.616	0.15680	0.01495	0.02585	0.98712	23.3	13111	30
2024-12-26 11:50:30.521	WT901BLE68(96416FE28A17)	-0.030	0.093	1.034	-0.854	1.526	0.977	3.36	-0.93	162.32	13.426	-42.434	-28.616	0.15295	0.01187	0.02762	0.98773	23.3	13111	30
2024-12-26 11:50:30.643	WT901BLE68(96416FE28A17)	-0.015	0.090	1.008	-1.465	-1.404	-0.061	3.28	-0.81	162.40	13.426	-42.434	-28.616	0.15295	0.01187	0.02762	0.98773	23.3	13111	30
2024-12-26 11:50:30.731	WT901BLE68(96416FE28A17)	-0.013	0.082	1.021	1.221	1.221	-0.427	3.41	-0.59	162.34	13.818	-42.630	-28.518	0.15295	0.01187	0.02762	0.98773	23.3	13111	30
2024-12-26 11:50:30.853	WT901BLE68(96416FE28A17)	-0.018	0.085	1.040	0.488	1.282	1.282	3.56	-0.48	162.34	13.818	-42.630	-28.518	0.15295	0.01187	0.02762	0.98773	23.3	13111	30
2024-12-26 11:50:30.910	WT901BLE68(96416FE28A17)	-0.042	0.092	1.007	-1.282	-1.831	3.540	3.52	-0.60	162.51	13.818	-42.630	-28.518	0.15033	0.01035	0.02972	0.98810	23.3	13111	30
2024-12-26 11:50:31.33	WT901BLE68(96416FE28A17)	-0.509	0.118	0.979	1.770	-0.366	4.639	3.65	-0.68	162.87	13.818	-42.630	-28.518	0.15033	0.01035	0.02972	0.98810	23.3	13111	30
2024-12-26 11:50:31.121	WT901BLE68(96416FE28A17)	-0.531	0.256	1.590	-4.639	66.589	-3.662	4.35	1.96	163.49	15.288	-43.218	-27.734	0.15033	0.01035	0.02972	0.98810	23.3	13111	30
2024-12-26 11:50:31.243	WT901BLE68(96416FE28A17)	-0.345	0.391	1.379	-67.261	76.294	-56.885	0.89	9.60	161.45	15.288	-43.218	-27.734	0.15033	0.01035	0.02972	0.98810	23.3	13111	30
2024-12-26 11:50:31.362	WT901BLE68(96416FE28A17)	-0.436	0.294	0.875	-66.101	98.328	-95.581	-7.58	17.56	153.25	15.288	-43.218	-27.734	0.24966	-0.20001	-0.03979	0.94656	23.3	13111	30
2024-12-26 11:50:31.454	WT901BLE68(96416FE28A17)	-0.372	0.117	0.502	13.306	88.989	-124.084	-14.14	25.61	139.75	15.288	-43.218	-27.734	0.24966	-0.20001	-0.03979	0.94656	23.3	13111	30
2024-12-26 11:50:31.542	WT901BLE68(96416FE28A17)	-0.319	0.069	0.503	84.656	75.500	-128.113	-15.40	30.85	123.27	42.630	-21.462	-16.366	0.24966	-0.20001	-0.03979	0.94656	23.3	13111	30
2024-12-26 11:50:31.661	WT901BLE68(96416FE28A17)	-0.223	0.061	0.646	116.333	29.541	-127.502	-12.35	32.84	107.60	42.630	-21.462	-16.366	0.24966	-0.20001	-0.03979	0.94656	23.3	13111	30
2024-12-26 11:50:31.722	WT901BLE68(96416FE28A17)	-0.216	0.111	0.706	148.560	49.988	-89.111	-5.66	34.51	94.58	42.630	-21.462	-16.366	0.67554	-0.21628	0.21640	0.67078	23.3	13111	30
2024-12-26 11:50:31.904	WT901BLE68(96416FE28A17)	-0.088	0.160	0.802	158.936	-2.747	-67.688	4.75	35.50	86.09	42.630	-21.462	-16.366	0.67554	-0.21628	0.21640	0.67078	23.3	13111	30
2024-12-26 11:50:31.932	WT901BLE68(96416FE28A17)	0.250	0.356	0.906	155.518	-49.988	-48.279	16.68	33.03	79.80	42.630	-21.462	-16.366	0.67554	-0.21628	0.21640	0.67078	23.3	13111	30
2024-12-26 11:50:32.80	WT901BLE68(96416FE28A17)	0.290	0.463	1.064	136.597	-89.050	-18.066	27.76	25.43	74.06	41.062	-18.718	-18.816	0.67554	-0.21628	0.21640	0.67078	23.3	13111	30
2024-12-26 11:50:32.143	WT901BLE68(96416FE28A17)	0.748	0.673	0.904	109.741	-167.175	20.752	37.95	14.01	69.74	41.062	-18.718	-18.816	0.67554	-0.21628	0.21640	0.67078	23.3	13111	30
2024-12-26 11:50:32.261	WT901BLE68(96416FE28A17)	1.333	1.043	0.593	124.023	-329.041	26.855	48.88	-5.52	58.23	41.062	-18.718	-18.816	0.77542	0.45395	0.09598	0.42819	23.3	13111	30
2024-12-26 11:50:32.321	WT901BLE68(96416FE28A17)	1.218	1.329	0.124	147.888	-416.260	61.462	74.70	-31.17	26.62	41.062	-18.718	-18.816	0.77542	0.45395	0.09598	0.42819	23.3	13111	30
2024-12-26 11:50:32.441	WT901BLE68(96416FE28A17)	0.920	1.361	-0.255	169.983	-158.142	4.822	108.25	-34.41	-2.50	-20.090	-47.432	-10.584	0.77542	0.45395	0.09598	0.42819	23.3	13111	30
2024-12-26 11:50:32.533	WT901BLE68(96416FE28A17)	1.312	1.221	-0.789	234.802	72.571	-0.854	130.44	-33.80	-4.91	-20.090	-47.432	-10.584	0.77542	0.45395	0.09598	0.42819	23.3	13111	30
2024-12-26 11:50:32.652	WT901BLE68(96416FE28A17)	0.090	1.840	-0.914	285.278	1086.060	268.433	54.48	-67.65	120.09	-20.090	-47.432	-10.584	0.07144	0.48898	0.09003	0.86462	23.3	13111	30
2024-12-26 11:50:32.743	WT901BLE68(96416FE28A17)	-0.435	0.979	-0.005	-68.176	222.961	328.003	-7.73	-24.93	-161.09	-20.090	-47.432	-10.584	0.07144	0.48898	0.09003	0.86462	23.3	13111	30
2024-12-26 11:50:32.862	WT901BLE68(96416FE28A17)	-0.405	0.175	0.417	-58.472	47.302	115.173	-21.12	-11.86	-145.22	-4.900	-27.048	-34.300	0.07144	0.48898	0.09003	0.86462	23.3	13111	30
2024-12-26 11:50:32.951	WT901BLE68(96416FE28A17)	-0.101	-0.093	0.563	0.427	-5.493	-5.127	-23.21	-4.73	-137.27	-4.900	-27.048	-34.300	0.07144	0.48898	0.09003	0.86462	23.3	13111	30
2024-12-26 11:50:33.71	WT901BLE68(96416FE28A17)	-0.017	-0.146	0.988	53.772	14.771	-70.984	-18.44	-3.96	-140.57	-4.900	-27.048	-34.300	-0.30609	0.07236	-0.12228	0.94128	23.3	13111	30
2024-12-26 11:50:33.132	WT901BLE68(96416FE28A17)	-0.105	-0.148	1.171	33.875	8.911	-81.482	-12.04	-2.81	-149.53	-4.900	-27.048	-34.300	-0.30609	0.07236	-0.12228	0.94128	23.3	13111	30
2024-12-26 11:50:33.281	WT901BLE68(96416FE28A17)	0.041	-0.166	1.064	2.625	-12.085	-103.699	-9.45	-4.43	-159.37	0.980	-32.340	-33.908	-0.30609	0.07236	-0.12228	0.94128	23.3	13111	30
2024-12-26 11:50:33.341	WT901BLE68(96416FE28A17)	0.370	-0.065	0.692	31.677	-6.592	-132.935	-7.11	-6.69	-171.84	0.980	-32.340	-33.908	-0.30609	0.07236	-0.12228	0.94128	23.3	13111	30
2024-12-26 11:50:33.461	WT901BLE68(96416FE28A17)	0.417	0.222	0.925	71.411	-3.296	-119.812	0.64	-8.30	174.06	0.980	-32.340	-33.908	0.07550	0.07300	0.01859	0.99426	23.3	13111	30
2024-12-26 11:50:33.552	WT901BLE68(96416FE28A17)	0.244	0.112	1.319	30.823	5.432	-38.940	7.26	-7.15	165.65	0.980	-32.340	-33.908	0.07550	0.07300	0.01859	0.99426	23.3	13111	30
2024-12-26 11:50:33.672	WT901BLE68(96416FE28A17)	0.107	0.080	1.213	-4.761	-6.897	-0.671	8.25	-7.60	163.34	11.956	-42.434	-29.008	0.07550	0.07300	0.01859	0.99426	23.3	13111	30
2024-12-26 11:50:33.731	WT901BLE68(96416FE28A17)	0.074	0.104	1.000	-14.648	-0.061	8.484	6.71	-8.23	163.43	11.956	-42.434	-29.008	0.07550	0.07300	0.01859	0.99426	23.3	13111	30
2024-12-26 11:50:33.858	WT901BLE68(96416FE28A17)	0.087	0.092	0.927	-3.052	5.676	6.958	5.60	-8.36	163.93	11.956	-42.434	-29.008	0.13498	0.07724	0.03787	0.98706	23.3	13111	30
2024-12-26 11:50:33.942	WT901BLE68(96416FE28A17)	0.082	0.098	0.995	6.165	0.488	0.732	5.79	-8.15	163.97	11.956	-42.434	-29.008	0.13498	0.07724	0.03787	0.98706	23.3	13111	30
2024-12-26 11:50:34.92	WT901BLE68(96416FE28A17)	0.095	0.088	1.110	1.892	4.333	0.610	6.19	-7.78	163.81	11.564	-42.042	-29.106	0.13498	0.07724	0.03787	0.98706	23.3	13111	30
2024-12-26 11:50:34.150	WT901BLE68(96416FE28A17)	0.083	0.111	1.030	-5.676	-2.808	-2.869	5.82	-7.75	163.39	11.564	-42.042	-29.106	0.13498	0.07724	0.03787	0.98706	23.3	13111	30
2024-12-26 11:50:34.272	WT901BLE68(96416FE28A17)	0.005	0.123	0.887	0.366	-6.287	-2.197	5.55	-7.81	162.93	11.564	-42.042	-29.106	0.14581	0.07617	0.03867	0.98557	23.3	13111	30
2024-12-26 11:50:34.361	WT901BLE68(96416FE28A17)	-0.565	0.179	1.262	18.494	28.809	-6.531	6.78	-7.10	162.39	11.564	-42.042	-29.106	0.14581	0.07617	0.03867	0.98557	23.3	13111	30
2024-12-26 11:50:34.482	WT901BLE68(96416FE28A17)	-0.250	0.492	2.129	-107.544	26.672	-49.927	4.27	-1.66	160.60	16.856	-39.200	-29.890	0.14581	0.07617	0.03867	0.98557	23.3	13111	30
2024-12-26 11:50:34.573	WT901BLE68(96416FE28A17)	-0.040	0.569	1.174	-162.537	88.623	-91.248	-9.48	4.05	153.51	16.856	-39.200	-29.890	0.14581	0.07617	0.03867	0.98557	23.3	13111	30
2024-12-26 11:50:34.662	WT901BLE68(96416FE28A17)	0.028	0.296	0.476	-112.854	96.680	-127.319	-23.69	9.91	139.12	16.856	-39.200	-29.890	0.38037	-0.18323	-0.18314	0.88776	23.3	13111	30
2024-12-26 11:50:34.754	WT901BLE68(96416FE28A17)	0.051	-0.023	0.229	-20.874	115.173	-148.010	-31.49	11.13	120.06	16.856	-39.200	-29.890	0.38037	-0.18323	-0.18314	0.88776	23.3	13111	30
2024-12-26 11:50:34.872	WT901BLE68(96416FE28A17)	0.200	-0.130	0.257	114.319	139.893	-162.354	-29.33	12.83	98.67	35.770	0.882	-18.718	0.38037	-0.18323	-0.18314	0.88776	23.3	13111	30
2024-12-26 11:50:34.961	WT901BLE68(96416FE28A17)	0.456	0.138	0.602	215.515	110.474	-144.775	-16.24	17.82	78.45	35.770	0.882	-18.718	0.38037	-0.18323	-0.18314	0.88776	23.3	13111	30
2024-12-26 11:50:35.84	WT901BLE68(96416FE28A17)	0.584	0.366	0.829	234.558	16.357	-97.717	2.97	19.26	65.60	35.770	0.882	-18.718	0.84354	-0.01843	0.18539	0.50360	23.3	13111	30
2024-12-26 11:50:35.143	WT901BLE68(96416FE28A17)	0.408	0.734	1.151	239.014	31.555	-14.038	26.39	20.59	62.04	35.770	0.882	-18.718	0.84354	-0.01843	0.18539	0.50360	23.3	13111	30
2024-12-26 11:50:35.261	WT901BLE68(96416FE28A17)	0.121	0.913	1.545	139.465	58.411	116.211	49.10	18.75	71.26	37.338	-27.832	-20.776	0.84354	-0.01843	0.18539	0.50360	23.3	13111	30
2024-12-26 11:50:35.384	WT901BLE68(96416FE28A17)	0.283	1.288	1.288	25.452	107.056	195.740	59.95	8.11	89.85	37.338	-27.832	-20.776	0.84354	-0.01843	0.18539	0.50360	23.3	13111	30
2024-12-26 11:50:35.472	WT901BLE68(96416FE28A17)	0.593	1.522	0.836	-40.039	54.077	202.148	57.80	-6.08	107.72	37.338	-27.832	-20.776	0.43033	0.38406	0.26547	0.77246	23.3	13111	30
2024-12-26 11:50:35.563	WT901BLE68(96416FE28A17)	1.115	1.258	0.442	-70.190	-395.691	149.780	53.16	-27.94	106.76	37.338	-27.832	-20.776	0.43033	0.38406	0.26547	0.77246	23.3	13111	30
2024-12-26 11:50:35.685	WT901BLE68(96416FE28A17)	0.731	1.513	0.748	138.245	-18.799	222.534	94.24	-64.40	56.41	-14.112	-49.490	-14.798	0.43033	0.38406	0.26547	0.77246	23.3	13111	30
2024-12-26 11:50:35.773	WT901BLE68(96416FE28A17)	-0.208	1.555	-0.107	64.148	481.628	347.778	5.41	-49.04	169.58	-14.112	-49.490	-14.798	0.43033	0.38406	0.26547	0.77246	23.3	13111	30
2024-12-26 11:50:35.891	WT901BLE68(96416FE28A17)	-0.096	0.439	0.568	-32.410	-28.931	194.458	-18.29	-38.59	-161.41	-14.112	-49.490	-14.798	-0.12524	0.36160	-0.12244	0.91568	23.3	13111	30
2024-12-26 11:50:35.952	WT901BLE68(96416FE28A17)	0.130	0.111	0.577	-2.075	-15.869	80.505	-29.04	-36.44	-147.38	-14.112	-49.490	-14.798	-0.12524	0.36160	-0.12244	0.91568	23.3	13111	30
2024-12-26 11:50:36.71	WT901BLE68(96416FE28A17)	0.386	-0.051	0.950	37.292	-5.310	-6.042	-25.72	-34.55	-143.48	-20.286	-29.008	-26.950	-0.12524	0.36160	-0.12244	0.91568	23.3	13111	30
2024-12-26 11:50:36.160	WT901BLE68(96416FE28A17)	0.536	-0.082	1.183	19.348	-4.150	-36.011	-18.46	-33.59	-147.38	-20.286	-29.008	-26.950	-0.12524	0.36160	-0.12244	0.91568	23.3	13111	30
2024-12-26 11:50:36.285	WT901BLE68(96416FE28A17)	0.480	-0.143	1.049	-10.437	19.958	-33.997	-14.63	-33.89	-152.59	-20.286	-29.008	-26.950	-0.16916	0.29996	-0.05157	0.93735	23.3	13111	30
2024-12-26 11:50:36.373	WT901BLE68(96416FE28A17)	0.456	-0.147	0.990	-19.348	45.044	-31.250	-13.13	-31.88	-157.88	-20.286	-29.008	-26.950	-0.16916	0.29996	-0.05157	0.93735	23.3	13111	30
2024-12-26 11:50:36.522	WT901BLE68(96416FE28A17)	0.418	-0.130	0.862	-18.311	10.925	-28.564	-12.58	-29.32	-162.93	-13.230	-34.202	-29.204	-0.16916	0.29996	-0.05157	0.93735	23.3	13111	30
2024-12-26 11:50:36.553	WT901BLE68(96416FE28A17)	0.439	-0.195	0.888	-3.906	9.827	-20.447	-11.87	-28.36	-166.87	-13.230	-34.202	-29.204	-0.16916	0.29996	-0.05157	0.93735	23.3	13111	30
2024-12-26 11:50:36.671	WT901BLE68(96416FE28A17)	0.412	-0.227	0.932	0.732	-1.526	-13.184	-10.95	-28.14	-169.59	-13.230	-34.202	-29.204	-0.05911	0.24936	-0.07004	0.96402	23.3	13111	30
2024-12-26 11:50:36.761	WT901BLE68(96416FE28A17)	0.392	-0.194	0.922	2.075	-3.235	-2.014	-10.59	-28.14	-170.89	-13.230	-34.202	-29.204	-0.05911	0.24936	-0.07004	0.96402	23.3	13111	30
2024-12-26 11:50:36.886	WT901BLE68(96416FE28A17)	0.383	-0.149	0.875	7.690	-9.827	5.066	-10.42	-28.61	-171.06	-11.074	-35.770	-29.596	-0.05911	0.24936	-0.07004	0.96402	23.3	13111	30
2024-12-26 11:50:36.971	WT901BLE68(96416FE28A17)	0.445	-0.091	0.801	18.250	-21.729	1.892	-9.55	-29.90	-170.70	-11.074	-35.770	-29.596	-0.05911	0.24936	-0.07004	0.96402	23.3	13111	30
2024-12-26 11:50:37.91	WT901BLE68(96416FE28A17)	0.526	-0.074	0.750	29.602	-51.819	-3.479	-7.46	-33.28	-170.49	-11.074	-35.770	-29.596	-0.06210	0.31802	-0.02005	0.94577	23.3	13111	30
2024-12-26 11:50:37.190	WT901BLE68(96416FE28A17)	0.598	0.030	0.647	41.626	-69.641	-9.583	-3.89	-39.44	-170.91	-11.074	-35.770	-29.596	-0.06210	0.31802	-0.02005	0.94577	23.3	13111	30
2024-12-26 11:50:37.301	WT901BLE68(96416FE28A17)	0.749	0.209	0.510	53.345	-103.210	-20.996	2.47	-47.39	-173.25	-21.364	-43.708	-16.562	-0.06210	0.31802	-0.02005	0.94577	23.3	13111	30
2024-12-26 11:50:37.361	WT901BLE68(96416FE28A17)	0.913	0.331	0.397	67.505	-132.629	-34.302	15.35	-58.45	178.45	-21.364	-43.708	-16.562	-0.06210	0.31802	-0.02005	0.94577	23.3	13111	30
2024-12-26 11:50:37.487	WT901BLE68(96416FE28A17)	1.363	0.514	0.221	78.613	-201.904	-57.068	50.54	-69.43	148.22	-21.364	-43.708	-16.562	-0.00986	0.65131	0.23602	0.72101	23.3	13111	30
2024-12-26 11:50:37.571	WT901BLE68(96416FE28A17)	1.604	0.680	-0.360	53.223	-342.957	-72.998	122.58	-62.92	78.01	-21.364	-43.708	-16.562	-0.00986	0.65131	0.23602	0.72101	23.3	13111	30
2024-12-26 11:50:37.690	WT901BLE68(96416FE28A17)	1.757	0.801	-0.119	165.771	135.071	-152.832	140.97	-45.54	69.60	-10.192	-50.764	32.928	-0.00986	0.65131	0.23602	0.72101	23.3	13111	30
2024-12-26 11:50:37.789	WT901BLE68(96416FE28A17)	-1.061	0.670	0.515	98.816	437.500	-13.550	99.43	-63.48	140.45	-10.192	-50.764	32.928	-0.00986	0.65131	0.23602	0.72101	23.3	13111	30
2024-12-26 11:50:37.901	WT901BLE68(96416FE28A17)	3.112	1.725	1.485	-481.750	-87.585	-1.343	36.97	-56.82	-166.27	-10.192	-50.764	32.928	-0.16333	0.51724	0.21561	0.81192	23.3	13111	30
2024-12-26 11:50:37.962	WT901BLE68(96416FE28A17)	0.111	0.687	-0.711	-112.000	-565.369	453.125	-160.10	-58.79	-14.82	-10.192	-50.764	32.928	-0.16333	0.51724	0.21561	0.81192	23.3	13111	30
2024-12-26 11:50:38.83	WT901BLE68(96416FE28A17)	0.031	0.306	-0.553	35.278	62.317	91.980	-143.44	-37.40	-44.27	-32.340	-20.580	30.870	-0.16333	0.51724	0.21561	0.81192	23.3	13111	30
2024-12-26 11:50:38.173	WT901BLE68(96416FE28A17)	0.295	-0.064	-0.285	-10.620	81.604	18.250	-136.97	-40.09	-59.55	-32.340	-20.580	30.870	-0.16333	0.51724	0.21561	0.81192	23.3	13111	30
2024-12-26 11:50:38.291	WT901BLE68(96416FE28A17)	0.888	-0.204	-0.409	-52.063	-12.329	-18.738	-143.01	-39.68	-61.24	-32.340	-20.580	30.870	-0.06488	0.83432	-0.36093	0.41150	23.3	13111	30
2024-12-26 11:50:38.391	WT901BLE68(96416FE28A17)	0.966	-0.491	-0.684	-59.082	10.071	-53.650	-153.45	-40.70	-54.81	-32.340	-20.580	30.870	-0.06488	0.83432	-0.36093	0.41150	23.3	13111	30
2024-12-26 11:50:38.500	WT901BLE68(96416FE28A17)	0.610	-0.484	-0.795	-20.691	44.189	-41.321	-160.31	-45.35	-49.22	-36.652	-26.852	21.168	-0.06488	0.83432	-0.36093	0.41150	23.3	13111	30
2024-12-26 11:50:38.592	WT901BLE68(96416FE28A17)	0.419	-0.385	-0.746	15.808	36.804	-40.039	-161.86	-50.55	-45.83	-36.652	-26.852	21.168	-0.06488	0.83432	-0.36093	0.41150	23.3	13111	30
2024-12-26 11:50:38.711	WT901BLE68(96416FE28A17)	0.861	-0.303	-0.645	58.350	110.413	-83.252	-162.08	-58.70	-39.42	-36.652	-26.852	21.168	0.03625	0.81741	-0.15027	0.55484	23.3	13111	30
2024-12-26 11:50:38.771	WT901BLE68(96416FE28A17)	1.091	-0.172	-0.718	115.601	145.142	-101.379	-166.11	-71.56	-25.24	-36.652	-26.852	21.168	0.03625	0.81741	-0.15027	0.55484	23.3	13111	30
2024-12-26 11:50:38.892	WT901BLE68(96416FE28A17)	1.272	0.083	-0.395	187.134	97.046	-49.561	-176.07	-84.42	0.54	-31.066	-44.100	7.350	0.03625	0.81741	-0.15027	0.55484	23.3	13111	30
2024-12-26 11:50:38.994	WT901BLE68(96416FE28A17)	1.592	0.157	-0.125	167.114	-37.964	9.155	-172.67	-85.78	13.96	-31.066	-44.100	7.350	0.03625	0.81741	-0.15027	0.55484	23.3	13111	30
2024-12-26 11:50:39.100	WT901BLE68(96416FE28A17)	1.159	0.443	-0.267	121.521	-189.514	85.388	-155.19	-73.52	9.61	-31.066	-44.100	7.350	-0.26526	0.81003	0.21140	0.47821	23.3	13111	30
2024-12-26 11:50:39.194	WT901BLE68(96416FE28A17)	0.751	0.406	-0.428	131.775	-121.277	70.618	-146.22	-55.95	12.61	-31.066	-44.100	7.350	-0.26526	0.81003	0.21140	0.47821	23.3	13111	30
2024-12-26 11:50:39.311	WT901BLE68(96416FE28A17)	0.652	0.204	-0.413	147.583	-23.499	0.977	-135.71	-51.57	17.36	-21.266	-15.680	41.846	-0.26526	0.81003	0.21140	0.47821	23.3	13111	30
2024-12-26 11:50:39.372	WT901BLE68(96416FE28A17)	0.697	0.027	-0.340	130.493	-14.038	-31.982	-127.39	-54.19	23.73	-21.266	-15.680	41.846	-0.26526	0.81003	0.21140	0.47821	23.3	13111	30
2024-12-26 11:50:39.493	WT901BLE68(96416FE28A17)	0.647	0.032	-0.230	116.577	-31.128	-55.969	-125.25	-57.55	34.78	-21.266	-15.680	41.846	-0.53021	0.62357	0.50510	0.27350	23.3	13111	30
2024-12-26 11:50:39.595	WT901BLE68(96416FE28A17)	0.633	0.174	-0.102	110.168	-9.094	-99.854	-128.13	-63.52	49.94	-21.266	-15.680	41.846	-0.53021	0.62357	0.50510	0.27350	23.3	13111	30
2024-12-26 11:50:39.701	WT901BLE68(96416FE28A17)	0.981	0.341	0.103	93.689	33.386	-130.127	-140.12	-73.19	72.98	-24.108	-2.156	35.280	-0.53021	0.62357	0.50510	0.27350	23.3	13111	30
2024-12-26 11:50:39.794	WT901BLE68(96416FE28A17)	1.002	1.055	0.454	91.858	77.881	-194.824	159.67	-79.42	143.16	-24.108	-2.156	35.280	-0.53021	0.62357	0.50510	0.27350	23.3	13111	30
2024-12-26 11:50:39.911	WT901BLE68(96416FE28A17)	1.792	2.638	1.618	-62.134	206.299	-368.958	69.43	-57.16	-120.86	-24.108	-2.156	35.280	-0.44760	0.03061	0.55838	0.69772	23.3	13111	30
2024-12-26 11:50:40.1	WT901BLE68(96416FE28A17)	0.001	6.146	-5.498	-936.707	-1354.004	58.960	59.76	-41.31	179.12	-24.108	-2.156	35.280	-0.44760	0.03061	0.55838	0.69772	23.3	13111	30
2024-12-26 11:50:40.121	WT901BLE68(96416FE28A17)	0.438	3.792	-1.286	-89.783	210.266	586.548	-152.52	-55.40	-34.49	-35.084	-22.638	21.658	-0.44760	0.03061	0.55838	0.69772	23.3	13111	30
2024-12-26 11:50:40.194	WT901BLE68(96416FE28A17)	-0.130	1.613	-0.950	-4.089	188.293	247.009	-121.47	-35.10	-85.72	-35.084	-22.638	21.658	-0.44760	0.03061	0.55838	0.69772	23.3	13111	30
2024-12-26 11:50:40.301	WT901BLE68(96416FE28A17)	-0.304	0.574	-0.532	3.174	218.750	134.216	-110.03	-27.79	-118.51	-35.084	-22.638	21.658	-0.05450	0.42746	-0.68106	0.59192	23.3	13111	30
2024-12-26 11:50:40.395	WT901BLE68(96416FE28A17)	-0.079	-0.152	-0.345	-53.894	105.530	51.208	-110.34	-25.44	-137.01	-35.084	-22.638	21.658	-0.05450	0.42746	-0.68106	0.59192	23.3	13111	30
2024-12-26 11:50:40.511	WT901BLE68(96416FE28A17)	0.291	-0.506	-0.233	-70.862	104.553	-65.857	-118.48	-29.65	-143.27	-22.246	13.426	-8.036	-0.05450	0.42746	-0.68106	0.59192	23.3	13111	30
2024-12-26 11:50:40.602	WT901BLE68(96416FE28A17)	0.971	-0.535	-0.388	-110.901	69.702	-161.072	-128.99	-42.93	-143.08	-22.246	13.426	-8.036	-0.05450	0.42746	-0.68106	0.59192	23.3	13111	30
2024-12-26 11:50:40.720	WT901BLE68(96416FE28A17)	1.270	-0.479	-0.747	-132.935	-39.001	-173.828	-156.86	-51.92	-122.15	-22.246	13.426	-8.036	0.34421	0.55655	-0.69617	0.29498	23.3	13111	30
2024-12-26 11:50:40.782	WT901BLE68(96416FE28A17)	0.799	-0.288	-0.798	-56.091	76.172	-152.588	173.27	-55.88	-94.28	-22.246	13.426	-8.036	0.34421	0.55655	-0.69617	0.29498	23.3	13111	30
2024-12-26 11:50:40.902	WT901BLE68(96416FE28A17)	0.558	0.041	-0.553	14.771	71.838	-117.371	150.62	-60.10	-66.32	-34.594	-19.208	-10.878	0.34421	0.55655	-0.69617	0.29498	23.3	13111	30
2024-12-26 11:50:40.995	WT901BLE68(96416FE28A17)	0.850	0.240	-0.378	52.856	93.872	-123.413	132.30	-59.37	-37.53	-34.594	-19.208	-10.878	0.34421	0.55655	-0.69617	0.29498	23.3	13111	30
2024-12-26 11:50:41.110	WT901BLE68(96416FE28A17)	0.702	0.999	-0.268	80.078	100.769	-187.744	118.10	-50.49	-10.73	-34.594	-19.208	-10.878	0.49106	0.77109	-0.09320	0.39432	23.3	13111	30
2024-12-26 11:50:41.203	WT901BLE68(96416FE28A17)	0.656	1.425	-0.359	230.652	277.954	-64.941	105.19	-44.34	28.36	-34.594	-19.208	-10.878	0.49106	0.77109	-0.09320	0.39432	23.3	13111	30
2024-12-26 11:50:41.321	WT901BLE68(96416FE28A17)	0.456	1.267	-0.081	240.845	211.670	47.974	104.09	-48.91	63.79	0.490	-60.760	-0.196	0.49106	0.77109	-0.09320	0.39432	23.3	13111	30
2024-12-26 11:50:41.382	WT901BLE68(96416FE28A17)	1.318	1.075	-0.184	176.025	133.423	91.858	101.69	-58.61	93.21	0.490	-60.760	-0.196	0.49106	0.77109	-0.09320	0.39432	23.3	13111	30
2024-12-26 11:50:41.531	WT901BLE68(96416FE28A17)	0.929	0.673	-0.648	97.839	-77.942	102.234	117.32	-64.89	89.69	0.490	-60.760	-0.196	-0.08313	0.74512	0.30389	0.58774	23.3	13111	30
2024-12-26 11:50:41.597	WT901BLE68(96416FE28A17)	0.610	0.866	-0.503	157.776	-13.855	151.428	158.16	-69.29	58.24	0.490	-60.760	-0.196	-0.08313	0.74512	0.30389	0.58774	23.3	13111	30
2024-12-26 11:50:41.710	WT901BLE68(96416FE28A17)	0.746	0.766	-0.358	151.672	4.456	130.615	-153.45	-69.99	22.99	-24.010	-32.536	37.534	-0.08313	0.74512	0.30389	0.58774	23.3	13111	30
2024-12-26 11:50:41.803	WT901BLE68(96416FE28A17)	0.729	0.353	-0.320	118.469	-50.659	62.866	-131.93	-64.50	14.87	-24.010	-32.536	37.534	-0.08313	0.74512	0.30389	0.58774	23.3	13111	30
2024-12-26 11:50:41.920	WT901BLE68(96416FE28A17)	0.629	0.049	-0.301	100.647	-62.805	23.682	-128.79	-59.71	23.60	-24.010	-32.536	37.534	-0.48285	0.70413	0.41769	0.31058	23.3	13111	30
2024-12-26 11:50:42.12	WT901BLE68(96416FE28A17)	0.522	-0.069	-0.265	81.848	-60.059	-3.601	-129.31	-56.87	33.85	-24.010	-32.536	37.534	-0.48285	0.70413	0.41769	0.31058	23.3	13111	30
2024-12-26 11:50:42.132	WT901BLE68(96416FE28A17)	0.515	0.072	-0.225	65.491	-60.791	-50.110	-133.27	-56.19	46.15	-13.622	-6.174	45.668	-0.48285	0.70413	0.41769	0.31058	23.3	13111	30
2024-12-26 11:50:42.193	WT901BLE68(96416FE28A17)	0.812	0.193	-0.199	33.508	-31.982	-91.309	-143.35	-59.85	62.63	-13.622	-6.174	45.668	-0.48285	0.70413	0.41769	0.31058	23.3	13111	30
2024-12-26 11:50:42.310	WT901BLE68(96416FE28A17)	1.304	0.174	-0.404	9.521	93.811	-140.320	-160.86	-68.70	83.55	-13.622	-6.174	45.668	-0.39520	0.49603	0.67831	0.37085	23.3	13111	30
2024-12-26 11:50:42.401	WT901BLE68(96416FE28A17)	3.797	0.738	-0.018	-99.976	-191.040	-236.511	153.36	-57.19	126.72	-13.622	-6.174	45.668	-0.39520	0.49603	0.67831	0.37085	23.3	13111	30
2024-12-26 11:50:42.520	WT901BLE68(96416FE28A17)	-0.925	2.822	2.133	-83.130	507.202	-204.712	102.04	-47.92	-178.69	-24.402	-42.434	24.402	-0.39520	0.49603	0.67831	0.37085	23.3	13111	30
2024-12-26 11:50:42.612	WT901BLE68(96416FE28A17)	0.103	5.133	-1.483	-773.193	-571.167	-20.874	48.63	-44.29	-177.02	-24.402	-42.434	24.402	-0.39520	0.49603	0.67831	0.37085	23.3	13111	30
2024-12-26 11:50:42.732	WT901BLE68(96416FE28A17)	0.066	4.031	-0.860	-172.546	-152.771	695.801	-134.51	-44.30	-51.34	-24.402	-42.434	24.402	-0.29779	0.67636	-0.44009	0.50998	23.3	13111	30
2024-12-26 11:50:42.790	WT901BLE68(96416FE28A17)	-0.344	1.906	-1.014	78.857	305.420	230.225	-107.73	-23.91	-88.12	-24.402	-42.434	24.402	-0.29779	0.67636	-0.44009	0.50998	23.3	13111	30
2024-12-26 11:50:42.948	WT901BLE68(96416FE28A17)	-0.274	0.148	-0.430	-10.864	130.615	142.273	-101.74	-10.74	-116.61	-22.736	14.700	0.294	-0.29779	0.67636	-0.44009	0.50998	23.3	13111	30
2024-12-26 11:50:43.1	WT901BLE68(96416FE28A17)	-0.041	-0.337	-0.288	-66.956	108.704	47.852	-110.41	-4.05	-129.24	-22.736	14.700	0.294	-0.29779	0.67636	-0.44009	0.50998	23.3	13111	30
2024-12-26 11:50:43.120	WT901BLE68(96416FE28A17)	0.299	-0.437	-0.252	-122.437	102.356	-43.518	-122.74	-6.90	-137.88	-22.736	14.700	0.294	-0.02542	0.36160	-0.83926	0.40512	23.3	13111	30
2024-12-26 11:50:43.213	WT901BLE68(96416FE28A17)	0.584	-0.186	-0.350	-168.091	89.478	-130.127	-138.04	-18.05	-138.75	-22.736	14.700	0.294	-0.02542	0.36160	-0.83926	0.40512	23.3	13111	30
2024-12-26 11:50:43.331	WT901BLE68(96416FE28A17)	0.830	0.296	-0.777	-190.430	70.068	-158.813	-161.05	-31.83	-128.46	-34.104	2.352	11.564	-0.02542	0.36160	-0.83926	0.40512	23.3	13111	30
2024-12-26 11:50:43.422	WT901BLE68(96416FE28A17)	1.139	0.739	-1.020	-153.564	129.089	-224.792	166.61	-41.03	-104.60	-34.104	2.352	11.564	-0.02542	0.36160	-0.83926	0.40512	23.3	13111	30
2024-12-26 11:50:43.542	WT901BLE68(96416FE28A17)	1.548	0.781	-1.108	-33.813	148.438	-252.075	133.08	-38.58	-68.49	-34.104	2.352	11.564	0.52298	0.76184	-0.37381	0.07901	23.3	13111	30
2024-12-26 11:50:43.601	WT901BLE68(96416FE28A17)	2.556	0.778	-0.657	159.851	222.351	-200.989	120.82	-30.50	-32.76	-34.104	2.352	11.564	0.52298	0.76184	-0.37381	0.07901	23.3	13111	30
2024-12-26 11:50:43.722	WT901BLE68(96416FE28A17)	-0.322	0.916	0.227	217.712	441.650	7.202	123.66	-38.08	0.85	-5.782	-52.430	-16.268	0.52298	0.76184	-0.37381	0.07901	23.3	13111	30
2024-12-26 11:50:43.812	WT901BLE68(96416FE28A17)	0.080	1.143	0.889	-96.924	437.378	144.226	46.84	-50.88	107.59	-5.782	-52.430	-16.268	0.52298	0.76184	-0.37381	0.07901	23.3	13111	30
2024-12-26 11:50:43.932	WT901BLE68(96416FE28A17)	0.109	0.946	1.148	-168.945	149.719	86.975	13.95	-38.44	135.86	-5.782	-52.430	-16.268	0.33310	0.21524	-0.07306	0.91504	23.3	13111	30
2024-12-26 11:50:44.21	WT901BLE68(96416FE28A17)	0.122	0.791	0.848	-123.291	127.075	-37.842	-1.01	-23.60	138.72	-5.782	-52.430	-16.268	0.33310	0.21524	-0.07306	0.91504	23.3	13111	30
2024-12-26 11:50:44.145	WT901BLE68(96416FE28A17)	0.089	0.484	0.807	-57.373	110.291	-107.605	-4.05	-12.68	127.62	33.418	-24.696	-25.970	0.33310	0.21524	-0.07306	0.91504	23.3	13111	30
2024-12-26 11:50:44.200	WT901BLE68(96416FE28A17)	-0.020	0.464	0.824	12.146	111.023	-143.188	-1.63	-2.43	112.92	33.418	-24.696	-25.970	0.33310	0.21524	-0.07306	0.91504	23.3	13111	30
2024-12-26 11:50:44.352	WT901BLE68(96416FE28A17)	-0.129	0.495	0.812	71.045	74.280	-169.189	4.69	6.67	96.85	33.418	-24.696	-25.970	0.33310	0.21524	-0.07306	0.91504	23.3	13111	30
2024-12-26 11:50:44.412	WT901BLE68(96416FE28A17)	0.272	0.452	0.818	109.009	27.771	-200.562	12.33	13.74	79.27	33.418	-24.696	-25.970	0.76834	0.00626	0.15961	0.61972	23.3	13111	30
2024-12-26 11:50:44.532	WT901BLE68(96416FE28A17)	0.282	0.116	1.016	113.525	-12.512	-196.533	18.68	18.97	59.15	34.790	0.392	-19.894	0.76834	0.00626	0.15961	0.61972	23.3	13111	30
2024-12-26 11:50:44.622	WT901BLE68(96416FE28A17)	0.225	-0.122	0.799	88.806	7.019	-72.266	25.01	23.12	49.18	34.790	0.392	-19.894	0.76834	0.00626	0.15961	0.61972	23.3	13111	30
2024-12-26 11:50:44.742	WT901BLE68(96416FE28A17)	0.628	-0.091	0.425	112.671	-11.353	-0.671	32.49	22.19	47.49	34.790	0.392	-19.894	0.86185	0.26370	0.27448	0.33502	23.3	13111	30
2024-12-26 11:50:44.832	WT901BLE68(96416FE28A17)	1.344	0.205	0.860	144.409	-44.678	45.532	43.87	15.93	49.45	34.790	0.392	-19.894	0.86185	0.26370	0.27448	0.33502	23.3	13111	30
2024-12-26 11:50:44.951	WT901BLE68(96416FE28A17)	-0.429	1.180	1.379	124.268	64.880	210.999	56.79	3.22	56.46	29.792	-34.888	-24.108	0.86185	0.26370	0.27448	0.33502	23.3	13111	30
2024-12-26 11:50:45.10	WT901BLE68(96416FE28A17)	4.050	2.216	1.891	-31.677	34.058	234.558	61.07	-16.09	81.61	29.792	-34.888	-24.108	0.86185	0.26370	0.27448	0.33502	23.3	13111	30
2024-12-26 11:50:45.132	WT901BLE68(96416FE28A17)	1.686	3.144	0.140	87.891	-1100.891	293.823	107.67	-50.37	8.22	29.792	-34.888	-24.108	0.86185	0.26370	0.27448	0.33502	23.3	13111	30
2024-12-26 11:50:45.221	WT901BLE68(96416FE28A17)	-0.406	4.011	-1.119	313.171	853.394	484.558	14.82	-81.68	129.35	29.792	-34.888	-24.108	0.24466	0.62790	-0.18921	0.71411	23.3	13111	30
2024-12-26 11:50:45.341	WT901BLE68(96416FE28A17)	-0.370	1.809	-0.034	-110.901	145.691	400.879	-33.74	-20.49	-172.19	4.802	-24.794	-35.672	0.24466	0.62790	-0.18921	0.71411	23.3	13111	30
2024-12-26 11:50:45.431	WT901BLE68(96416FE28A17)	-0.385	0.854	0.244	-127.930	25.452	238.770	-47.56	3.08	-156.42	4.802	-24.794	-35.672	0.24466	0.62790	-0.18921	0.71411	23.3	13111	30
2024-12-26 11:50:45.552	WT901BLE68(96416FE28A17)	-0.562	0.451	0.282	-107.117	-81.970	161.987	-55.07	20.68	-136.91	4.802	-24.794	-35.672	-0.53098	0.03033	-0.48157	0.69650	23.3	13111	30
2024-12-26 11:50:45.611	WT901BLE68(96416FE28A17)	-0.454	0.056	0.446	-52.307	-142.944	53.650	-52.15	27.90	-117.55	4.802	-24.794	-35.672	-0.53098	0.03033	-0.48157	0.69650	23.3	13111	30
2024-12-26 11:50:45.761	WT901BLE68(96416FE28A17)	0.902	-0.384	0.761	41.687	-170.105	-126.648	-44.83	16.73	-106.06	4.802	-24.794	-35.672	-0.53098	0.03033	-0.48157	0.69650	23.3	13111	30
2024-12-26 11:50:45.821	WT901BLE68(96416FE28A17)	1.058	-0.761	1.399	69.885	-37.781	-194.397	-36.70	-3.22	-113.60	-22.050	-14.014	-26.656	-0.53098	0.03033	-0.48157	0.69650	23.3	13111	30
2024-12-26 11:50:45.941	WT901BLE68(96416FE28A17)	0.578	-0.875	1.110	54.626	-52.734	-52.002	-29.73	-14.40	-121.31	-22.050	-14.014	-26.656	-0.53098	0.03033	-0.48157	0.69650	23.3	13111	30
2024-12-26 11:50:46.32	WT901BLE68(96416FE28A17)	0.621	-0.514	0.750	23.499	-20.020	11.841	-27.17	-16.96	-122.33	-22.050	-14.014	-26.656	-0.43338	0.23874	-0.13333	0.85867	23.3	13111	30
2024-12-26 11:50:46.153	WT901BLE68(96416FE28A17)	0.745	-0.323	0.438	29.663	-105.408	3.479	-26.93	-23.82	-119.65	-22.050	-14.014	-26.656	-0.43338	0.23874	-0.13333	0.85867	23.3	13111	30
2024-12-26 11:50:46.273	WT901BLE68(96416FE28A17)	1.000	-0.239	0.340	57.800	-73.853	0.000	-25.08	-31.88	-116.59	-33.026	-32.046	-9.996	-0.43338	0.23874	-0.13333	0.85867	23.3	13111	30
2024-12-26 11:50:46.362	WT901BLE68(96416FE28A17)	1.247	-0.211	0.622	73.792	-21.362	-7.141	-19.97	-39.22	-115.66	-33.026	-32.046	-9.996	-0.43338	0.23874	-0.13333	0.85867	23.3	13111	30
2024-12-26 11:50:46.422	WT901BLE68(96416FE28A17)	1.258	0.009	0.682	44.312	-66.040	56.458	-16.09	-41.64	-114.11	-33.026	-32.046	-9.996	-0.47049	0.37973	0.09134	0.79120	23.3	13111	30
2024-12-26 11:50:46.600	WT901BLE68(96416FE28A17)	0.868	-0.036	0.300	24.231	-181.335	97.900	-25.61	-51.47	-98.75	-33.026	-32.046	-9.996	-0.47049	0.37973	0.09134	0.79120	23.3	13111	30
2024-12-26 11:50:46.630	WT901BLE68(96416FE28A17)	0.705	-0.045	-0.100	69.336	-193.420	69.885	-53.01	-63.70	-62.29	-36.358	-24.402	21.462	-0.47049	0.37973	0.09134	0.79120	23.3	13111	30
2024-12-26 11:50:46.785	WT901BLE68(96416FE28A17)	0.475	0.102	-0.247	70.923	-167.908	10.315	-87.29	-67.45	-17.67	-36.358	-24.402	21.462	-0.47049	0.37973	0.09134	0.79120	23.3	13111	30
2024-12-26 11:50:46.842	WT901BLE68(96416FE28A17)	0.458	0.252	-0.374	56.335	-183.533	-75.745	-126.35	-66.75	30.82	-36.358	-24.402	21.462	-0.48627	0.65280	0.45212	0.36450	23.3	13111	30
2024-12-26 11:50:46.961	WT901BLE68(96416FE28A17)	0.771	0.417	-0.438	20.935	-167.908	-138.977	-162.72	-60.71	74.81	-36.358	-24.402	21.462	-0.48627	0.65280	0.45212	0.36450	23.3	13111	30
2024-12-26 11:50:47.21	WT901BLE68(96416FE28A17)	1.323	0.513	-0.392	-67.993	-111.267	-133.789	170.93	-47.53	102.84	2.450	-17.150	50.568	-0.48627	0.65280	0.45212	0.36450	23.3	13111	30
2024-12-26 11:50:47.142	WT901BLE68(96416FE28A17)	3.432	0.958	-0.463	-91.125	129.517	-207.642	147.31	-40.28	122.88	2.450	-17.150	50.568	-0.48627	0.65280	0.45212	0.36450	23.3	13111	30
2024-12-26 11:50:47.230	WT901BLE68(96416FE28A17)	1.350	2.367	0.780	-98.999	766.907	-257.690	87.87	-40.87	-165.11	2.450	-17.150	50.568	-0.39243	0.01465	0.57706	0.71600	23.3	13111	30
2024-12-26 11:50:47.352	WT901BLE68(96416FE28A17)	-0.914	5.836	-6.445	-888.123	-1412.964	240.906	43.00	-46.22	172.99	2.450	-17.150	50.568	-0.39243	0.01465	0.57706	0.71600	23.3	13111	30
2024-12-26 11:50:47.442	WT901BLE68(96416FE28A17)	0.266	3.546	-1.157	-89.233	109.192	543.884	-127.93	-42.22	-60.66	-31.752	-33.124	23.324	-0.39243	0.01465	0.57706	0.71600	23.3	13111	30
2024-12-26 11:50:47.562	WT901BLE68(96416FE28A17)	-0.276	1.918	-0.949	19.836	296.265	232.239	-115.00	-21.25	-95.16	-31.752	-33.124	23.324	-0.39243	0.01465	0.57706	0.71600	23.3	13111	30
2024-12-26 11:50:47.656	WT901BLE68(96416FE28A17)	-0.364	0.490	-0.552	-18.066	109.009	178.406	-113.34	-10.82	-121.60	-31.752	-33.124	23.324	-0.19519	0.43304	-0.71777	0.50897	23.3	13111	30
2024-12-26 11:50:47.801	WT901BLE68(96416FE28A17)	-0.036	-0.226	-0.340	-47.729	54.932	82.092	-121.73	-3.25	-132.48	-31.752	-33.124	23.324	-0.19519	0.43304	-0.71777	0.50897	23.3	13111	30
2024-12-26 11:50:47.831	WT901BLE68(96416FE28A17)	0.307	-0.375	-0.187	-80.505	125.427	-32.227	-131.39	-7.26	-140.06	-17.542	19.208	-0.588	-0.19519	0.43304	-0.71777	0.50897	23.3	13111	30
2024-12-26 11:50:47.951	WT901BLE68(96416FE28A17)	0.617	-0.311	-0.470	-152.771	70.740	-123.535	-144.24	-18.70	-140.28	-17.542	19.208	-0.588	-0.19519	0.43304	-0.71777	0.50897	23.3	13111	30
2024-12-26 11:50:48.42	WT901BLE68(96416FE28A17)	0.873	-0.056	-0.969	-170.166	53.040	-158.569	-165.60	-29.54	-128.59	-17.542	19.208	-0.588	0.17538	0.44482	-0.85049	0.21887	23.3	13111	30
2024-12-26 11:50:48.161	WT901BLE68(96416FE28A17)	1.000	0.095	-1.285	-132.019	54.443	-182.922	167.48	-35.11	-107.56	-17.542	19.208	-0.588	0.17538	0.44482	-0.85049	0.21887	23.3	13111	30
2024-12-26 11:50:48.252	WT901BLE68(96416FE28A17)	1.057	0.321	-1.064	-35.522	55.786	-190.613	146.65	-32.50	-83.62	-38.514	-12.544	8.722	0.17538	0.44482	-0.85049	0.21887	23.3	13111	30
2024-12-26 11:50:48.372	WT901BLE68(96416FE28A17)	1.269	0.351	-0.865	44.739	32.288	-180.298	138.73	-25.29	-62.87	-38.514	-12.544	8.722	0.17538	0.44482	-0.85049	0.21887	23.3	13111	30
2024-12-26 11:50:48.431	WT901BLE68(96416FE28A17)	1.336	0.613	-0.709	136.475	117.920	-128.540	141.81	-21.88	-42.15	-38.514	-12.544	8.722	0.35043	0.86014	-0.36282	0.07498	23.3	13111	30
2024-12-26 11:50:48.556	WT901BLE68(96416FE28A17)	1.567	0.772	-0.427	170.837	50.659	4.028	153.85	-27.53	-28.29	-38.514	-12.544	8.722	0.35043	0.86014	-0.36282	0.07498	23.3	13111	30
2024-12-26 11:50:48.672	WT901BLE68(96416FE28A17)	0.974	0.655	-0.292	136.536	-80.444	158.264	173.84	-29.72	-36.25	-32.536	-41.062	13.132	0.35043	0.86014	-0.36282	0.07498	23.3	13111	30
2024-12-26 11:50:48.762	WT901BLE68(96416FE28A17)	0.816	0.401	-0.362	93.384	-47.729	196.960	-165.32	-25.62	-53.27	-32.536	-41.062	13.132	0.35043	0.86014	-0.36282	0.07498	23.3	13111	30
2024-12-26 11:50:48.852	WT901BLE68(96416FE28A17)	0.872	0.418	-0.504	32.349	-12.085	186.584	-150.15	-18.51	-67.23	-32.536	-41.062	13.132	-0.13028	0.81390	-0.49725	0.27057	23.3	13111	30
2024-12-26 11:50:48.972	WT901BLE68(96416FE28A17)	0.627	0.220	-0.712	-9.277	141.418	180.359	-144.82	-13.45	-86.23	-32.536	-41.062	13.132	-0.13028	0.81390	-0.49725	0.27057	23.3	13111	30
2024-12-26 11:50:49.62	WT901BLE68(96416FE28A17)	0.251	-0.071	-1.074	-37.048	749.146	18.127	-125.73	-45.27	-139.03	-23.716	8.526	-6.468	-0.13028	0.81390	-0.49725	0.27057	23.3	13111	30
2024-12-26 11:50:49.189	WT901BLE68(96416FE28A17)	0.452	-0.078	-0.039	146.545	456.116	-153.748	-37.58	-52.96	118.31	-23.716	8.526	-6.468	-0.13028	0.81390	-0.49725	0.27057	23.3	13111	30
2024-12-26 11:50:49.272	WT901BLE68(96416FE28A17)	-0.109	0.465	0.256	307.129	292.114	-164.063	9.99	-26.67	85.58	-23.716	8.526	-6.468	0.70508	0.23761	-0.01553	0.66788	23.3	13111	30
2024-12-26 11:50:49.363	WT901BLE68(96416FE28A17)	-0.562	0.788	0.692	355.164	209.778	-78.186	46.05	-2.37	85.60	-23.716	8.526	-6.468	0.70508	0.23761	-0.01553	0.66788	23.3	13111	30
2024-12-26 11:50:49.451	WT901BLE68(96416FE28A17)	-0.340	1.150	1.227	257.629	129.272	-9.888	76.38	6.56	97.29	44.590	-32.634	-4.018	0.70508	0.23761	-0.01553	0.66788	23.3	13111	30
2024-12-26 11:50:49.571	WT901BLE68(96416FE28A17)	-0.090	0.979	1.126	44.067	120.850	73.792	88.09	4.14	110.31	44.590	-32.634	-4.018	0.70508	0.23761	-0.01553	0.66788	23.3	13111	30
2024-12-26 11:50:49.662	WT901BLE68(96416FE28A17)	0.342	1.225	0.746	-176.514	66.406	145.325	77.33	-7.38	124.30	44.590	-32.634	-4.018	0.31125	0.32251	0.46555	0.76306	23.3	13111	30
2024-12-26 11:50:49.789	WT901BLE68(96416FE28A17)	2.797	1.556	0.218	-329.712	-570.801	-57.739	54.77	-19.36	116.60	44.590	-32.634	-4.018	0.31125	0.32251	0.46555	0.76306	23.3	13111	30
2024-12-26 11:50:49.842	WT901BLE68(96416FE28A17)	1.551	2.260	0.130	208.435	-716.309	77.637	134.90	-42.92	-25.66	-17.640	-38.808	-11.074	0.31125	0.32251	0.46555	0.76306	23.3	13111	30
2024-12-26 11:50:49.963	WT901BLE68(96416FE28A17)	0.135	5.026	-1.584	130.676	1138.428	535.278	-10.98	-62.29	167.56	-17.640	-38.808	-11.074	0.31125	0.32251	0.46555	0.76306	23.3	13111	30
2024-12-26 11:50:50.50	WT901BLE68(96416FE28A17)	-0.538	1.571	0.070	-195.129	165.466	342.041	-35.02	-2.27	-165.20	-17.640	-38.808	-11.074	-0.16769	0.00247	-0.35092	0.92120	23.3	13111	30
2024-12-26 11:50:50.173	WT901BLE68(96416FE28A17)	-0.329	0.934	0.050	-249.329	-106.750	141.052	-53.56	23.32	-152.11	-17.640	-38.808	-11.074	-0.16769	0.00247	-0.35092	0.92120	23.3	13111	30
2024-12-26 11:50:50.261	WT901BLE68(96416FE28A17)	-0.542	0.462	0.519	-210.571	-234.741	104.553	-62.50	29.33	-123.08	-3.234	-1.862	-30.968	-0.16769	0.00247	-0.35092	0.92120	23.3	13111	30
2024-12-26 11:50:50.391	WT901BLE68(96416FE28A17)	0.151	-0.035	0.408	-182.434	-155.396	-40.710	-67.51	29.71	-100.63	-3.234	-1.862	-30.968	-0.16769	0.00247	-0.35092	0.92120	23.3	13111	30
2024-12-26 11:50:50.471	WT901BLE68(96416FE28A17)	1.417	-0.460	-0.079	-107.971	-343.140	-240.723	-70.32	10.40	-80.64	-3.234	-1.862	-30.968	-0.62930	0.51108	-0.32581	0.48630	23.3	13111	30
2024-12-26 11:50:50.593	WT901BLE68(96416FE28A17)	1.526	-0.669	-0.865	-116.028	-235.840	-343.323	-85.28	-26.53	-61.35	-3.234	-1.862	-30.968	-0.62930	0.51108	-0.32581	0.48630	23.3	13111	30
2024-12-26 11:50:50.654	WT901BLE68(96416FE28A17)	1.333	-0.553	-1.063	26.001	112.366	-272.644	-91.10	-59.00	-59.47	-32.340	-35.476	19.894	-0.62930	0.51108	-0.32581	0.48630	23.3	13111	30
2024-12-26 11:50:50.773	WT901BLE68(96416FE28A17)	1.154	-0.597	-0.442	114.319	79.529	-116.516	-64.65	-76.88	-79.85	-32.340	-35.476	19.894	-0.62930	0.51108	-0.32581	0.48630	23.3	13111	30
2024-12-26 11:50:50.862	WT901BLE68(96416FE28A17)	1.191	-0.205	-0.206	128.174	78.369	-17.395	-26.18	-77.27	-108.17	-32.340	-35.476	19.894	-0.35724	0.56766	0.22198	0.70764	23.3	13111	30
2024-12-26 11:50:50.991	WT901BLE68(96416FE28A17)	1.294	0.075	-0.098	65.979	37.781	43.213	-19.84	-70.60	-107.14	-32.340	-35.476	19.894	-0.35724	0.56766	0.22198	0.70764	23.3	13111	30
2024-12-26 11:50:51.71	WT901BLE68(96416FE28A17)	0.937	0.505	0.032	3.723	51.697	91.675	-27.36	-64.23	-97.33	-33.124	-36.456	22.050	-0.35724	0.56766	0.22198	0.70764	23.3	13111	30
2024-12-26 11:50:51.193	WT901BLE68(96416FE28A17)	0.701	0.495	0.110	-57.190	43.884	97.839	-41.19	-57.37	-86.06	-33.124	-36.456	22.050	-0.35724	0.56766	0.22198	0.70764	23.3	13111	30
2024-12-26 11:50:51.250	WT901BLE68(96416FE28A17)	0.798	0.241	-0.006	-92.834	-7.629	19.409	-51.71	-55.44	-82.62	-33.124	-36.456	22.050	-0.42969	0.58810	0.04990	0.68329	23.3	13111	30
2024-12-26 11:50:51.372	WT901BLE68(96416FE28A17)	1.069	0.307	-0.061	-88.257	-24.170	-78.064	-57.23	-62.45	-85.94	-33.124	-36.456	22.050	-0.42969	0.58810	0.04990	0.68329	23.3	13111	30
2024-12-26 11:50:51.460	WT901BLE68(96416FE28A17)	0.928	0.338	-0.041	-123.474	-3.906	-55.115	-61.31	-72.34	-91.96	-33.712	-39.102	13.230	-0.42969	0.58810	0.04990	0.68329	23.3	13111	30
2024-12-26 11:50:51.592	WT901BLE68(96416FE28A17)	0.706	0.423	-0.090	-182.800	-11.536	-92.651	-57.83	-79.22	-110.67	-33.712	-39.102	13.230	-0.42969	0.58810	0.04990	0.68329	23.3	13111	30
2024-12-26 11:50:51.671	WT901BLE68(96416FE28A17)	0.681	0.563	-0.284	-216.309	-21.545	-100.891	35.62	-88.39	136.19	-33.712	-39.102	13.230	0.12967	0.70193	-0.06702	0.69705	23.3	13111	30
2024-12-26 11:50:51.794	WT901BLE68(96416FE28A17)	0.728	1.120	-0.164	-263.184	-70.618	-124.512	97.61	-75.39	49.91	-33.712	-39.102	13.230	0.12967	0.70193	-0.06702	0.69705	23.3	13111	30
2024-12-26 11:50:51.880	WT901BLE68(96416FE28A17)	1.260	1.631	-0.052	-304.016	-212.524	-80.688	97.89	-60.66	18.18	-22.344	-39.396	-18.914	0.12967	0.70193	-0.06702	0.69705	23.3	13111	30
2024-12-26 11:50:52.0	WT901BLE68(96416FE28A17)	1.207	1.510	0.012	-327.576	-224.609	87.341	102.63	-54.67	-27.05	-22.344	-39.396	-18.914	0.12967	0.70193	-0.06702	0.69705	23.3	13111	30
2024-12-26 11:50:52.62	WT901BLE68(96416FE28A17)	0.997	1.222	-0.187	-290.588	-21.912	138.428	88.19	-63.05	-47.68	-22.344	-39.396	-18.914	0.74481	0.25763	-0.61346	0.04950	23.3	13111	30
2024-12-26 11:50:52.181	WT901BLE68(96416FE28A17)	0.832	0.684	-0.277	-225.830	36.682	168.518	46.01	-74.94	-30.56	-22.344	-39.396	-18.914	0.74481	0.25763	-0.61346	0.04950	23.3	13111	30
2024-12-26 11:50:52.273	WT901BLE68(96416FE28A17)	0.559	-0.022	-0.221	-149.475	17.090	198.730	-39.14	-74.81	38.26	-17.150	19.306	7.546	0.74481	0.25763	-0.61346	0.04950	23.3	13111	30
2024-12-26 11:50:52.397	WT901BLE68(96416FE28A17)	0.276	-0.458	-0.224	-81.848	8.423	180.725	-74.83	-60.29	64.09	-17.150	19.306	7.546	0.74481	0.25763	-0.61346	0.04950	23.3	13111	30
2024-12-26 11:50:52.481	WT901BLE68(96416FE28A17)	-0.028	-0.735	-0.262	-37.231	-33.386	154.480	-87.94	-45.04	71.82	-17.150	19.306	7.546	0.66986	-0.39581	-0.59314	0.20660	23.3	13111	30
2024-12-26 11:50:52.603	WT901BLE68(96416FE28A17)	-0.108	-0.896	-0.129	-10.132	-107.178	132.019	-95.64	-30.33	79.05	-17.150	19.306	7.546	0.66986	-0.39581	-0.59314	0.20660	23.3	13111	30
2024-12-26 11:50:52.663	WT901BLE68(96416FE28A17)	-0.221	-0.933	-0.003	6.592	-70.007	122.864	-98.50	-16.38	85.13	31.360	16.660	15.092	0.66986	-0.39581	-0.59314	0.20660	23.3	13111	30
2024-12-26 11:50:52.781	WT901BLE68(96416FE28A17)	-0.398	-0.888	0.072	2.625	-106.628	118.713	-98.92	-2.15	92.69	31.360	16.660	15.092	0.66986	-0.39581	-0.59314	0.20660	23.3	13111	30
2024-12-26 11:50:52.900	WT901BLE68(96416FE28A17)	-0.460	-0.814	0.109	-8.301	-143.066	128.296	-97.57	12.18	101.68	31.360	16.660	15.092	0.27011	-0.52380	-0.52002	0.61816	23.3	13111	30
2024-12-26 11:50:52.996	WT901BLE68(96416FE28A17)	-0.936	-0.626	0.344	-31.738	-193.420	160.461	-93.00	28.44	116.22	31.360	16.660	15.092	0.27011	-0.52380	-0.52002	0.61816	23.3	13111	30
2024-12-26 11:50:53.80	WT901BLE68(96416FE28A17)	-2.695	-0.092	0.798	-207.275	-189.148	253.784	-84.74	47.57	143.73	38.906	-12.446	-20.384	0.27011	-0.52380	-0.52002	0.61816	23.3	13111	30
2024-12-26 11:50:53.202	WT901BLE68(96416FE28A17)	-2.887	0.585	-0.126	-476.563	-149.536	305.115	-78.22	72.59	-175.05	38.906	-12.446	-20.384	0.27011	-0.52380	-0.52002	0.61816	23.3	13111	30
2024-12-26 11:50:53.291	WT901BLE68(96416FE28A17)	5.123	1.888	0.881	-561.462	1.587	-122.559	-23.60	66.04	-68.49	38.906	-12.446	-20.384	-0.62091	0.03406	-0.69232	0.36594	23.3	13111	30
2024-12-26 11:50:53.412	WT901BLE68(96416FE28A17)	-0.393	3.906	-4.314	948.975	1089.539	-721.130	-91.97	-1.30	-161.83	38.906	-12.446	-20.384	-0.62091	0.03406	-0.69232	0.36594	23.3	13111	30
2024-12-26 11:50:53.482	WT901BLE68(96416FE28A17)	0.829	2.175	2.125	300.293	-188.049	187.927	-17.45	12.77	165.77	8.918	-46.648	-21.070	-0.62091	0.03406	-0.69232	0.36594	23.3	13111	30
2024-12-26 11:50:53.590	WT901BLE68(96416FE28A17)	0.938	1.994	1.437	191.345	-175.476	84.045	9.79	-6.43	179.35	8.918	-46.648	-21.070	-0.62091	0.03406	-0.69232	0.36594	23.3	13111	30
2024-12-26 11:50:53.682	WT901BLE68(96416FE28A17)	0.978	1.779	1.462	122.559	-81.055	114.319	28.47	-21.58	-179.04	8.918	-46.648	-21.070	-0.11304	0.27176	0.27951	0.91385	23.3	13111	30
2024-12-26 11:50:53.804	WT901BLE68(96416FE28A17)	0.869	1.150	1.048	0.305	-227.173	189.941	33.15	-43.63	-175.01	8.918	-46.648	-21.070	-0.11304	0.27176	0.27951	0.91385	23.3	13111	30
2024-12-26 11:50:53.891	WT901BLE68(96416FE28A17)	0.631	0.535	0.535	-71.228	-182.007	148.865	23.86	-69.70	-168.34	-25.186	-47.824	21.168	-0.11304	0.27176	0.27951	0.91385	23.3	13111	30
2024-12-26 11:50:54.13	WT901BLE68(96416FE28A17)	1.201	0.386	0.080	-109.314	-44.067	72.510	-11.93	-78.76	-139.06	-25.186	-47.824	21.168	-0.11304	0.27176	0.27951	0.91385	23.3	13111	30
2024-12-26 11:50:54.82	WT901BLE68(96416FE28A17)	0.923	0.211	-0.573	-119.751	-222.168	95.703	-114.54	-81.56	-45.70	-25.186	-47.824	21.168	-0.15280	0.78220	0.02676	0.60330	23.3	13111	30
2024-12-26 11:50:54.191	WT901BLE68(96416FE28A17)	0.483	0.181	-0.538	-101.440	-80.872	167.358	-138.09	-63.77	-32.60	-25.186	-47.824	21.168	-0.15280	0.78220	0.02676	0.60330	23.3	13111	30
2024-12-26 11:50:54.283	WT901BLE68(96416FE28A17)	0.529	0.157	-0.570	-110.046	12.207	125.916	-135.49	-53.77	-48.61	-33.516	-34.202	23.226	-0.15280	0.78220	0.02676	0.60330	23.3	13111	30
2024-12-26 11:50:54.401	WT901BLE68(96416FE28A17)	0.793	0.102	-0.693	-96.619	64.575	40.527	-139.20	-52.31	-58.24	-33.516	-34.202	23.226	-0.15280	0.78220	0.02676	0.60330	23.3	13111	30
2024-12-26 11:50:54.490	WT901BLE68(96416FE28A17)	1.048	0.004	-0.662	-80.444	36.133	-4.456	-147.09	-55.44	-60.74	-33.516	-34.202	23.226	0.04477	0.79102	-0.33127	0.51227	23.3	13111	30
2024-12-26 11:50:54.612	WT901BLE68(96416FE28A17)	0.911	-0.242	-0.702	-44.800	-12.512	21.423	-151.73	-56.57	-61.94	-33.516	-34.202	23.226	0.04477	0.79102	-0.33127	0.51227	23.3	13111	30
2024-12-26 11:50:54.701	WT901BLE68(96416FE28A17)	0.515	-0.229	-0.511	2.563	19.592	52.490	-149.83	-55.01	-66.53	-38.024	-29.596	9.212	0.04477	0.79102	-0.33127	0.51227	23.3	13111	30
2024-12-26 11:50:54.823	WT901BLE68(96416FE28A17)	0.172	-0.067	-0.296	-4.761	32.349	24.597	-142.49	-55.49	-74.03	-38.024	-29.596	9.212	0.04477	0.79102	-0.33127	0.51227	23.3	13111	30
2024-12-26 11:50:54.882	WT901BLE68(96416FE28A17)	0.321	0.292	-0.184	-82.336	44.006	-79.163	-145.39	-59.78	-74.37	-38.024	-29.596	9.212	0.15271	0.76111	-0.36084	0.51675	23.3	13111	30
2024-12-26 11:50:55.1	WT901BLE68(96416FE28A17)	0.568	0.918	0.016	-134.888	6.470	-207.153	174.69	-65.10	-42.81	-38.024	-29.596	9.212	0.15271	0.76111	-0.36084	0.51675	23.3	13111	30
2024-12-26 11:50:55.92	WT901BLE68(96416FE28A17)	0.833	1.978	0.243	-209.473	-9.033	-286.316	118.81	-49.97	-1.92	-18.130	-48.706	-12.740	0.15271	0.76111	-0.36084	0.51675	23.3	13111	30
2024-12-26 11:50:55.213	WT901BLE68(96416FE28A17)	0.784	2.071	0.110	-273.621	-253.601	-146.545	96.83	-22.82	-12.59	-18.130	-48.706	-12.740	0.15271	0.76111	-0.36084	0.51675	23.3	13111	30
2024-12-26 11:50:55.301	WT901BLE68(96416FE28A17)	0.728	1.723	-0.167	-270.996	-313.354	66.589	78.76	-20.19	-40.70	-18.130	-48.706	-12.740	0.77731	0.37350	-0.45181	-0.22812	23.3	13111	30
2024-12-26 11:50:55.423	WT901BLE68(96416FE28A17)	0.765	1.165	-0.048	-195.984	-129.272	166.565	64.00	-38.06	-57.27	-18.130	-48.706	-12.740	0.77731	0.37350	-0.45181	-0.22812	23.3	13111	30
2024-12-26 11:50:55.484	WT901BLE68(96416FE28A17)	0.710	0.663	0.144	-142.883	-46.082	184.326	44.52	-55.42	-51.36	-33.908	-1.176	-1.960	0.77731	0.37350	-0.45181	-0.22812	23.3	13111	30
2024-12-26 11:50:55.601	WT901BLE68(96416FE28A17)	0.713	0.150	0.086	-101.440	-54.443	177.734	10.97	-68.03	-26.19	-33.908	-1.176	-1.960	0.77731	0.37350	-0.45181	-0.22812	23.3	13111	30
2024-12-26 11:50:55.690	WT901BLE68(96416FE28A17)	0.491	-0.212	0.039	-38.757	-72.754	175.293	-43.26	-70.97	24.31	-33.908	-1.176	-1.960	0.76483	-0.24286	-0.59650	0.01266	23.3	13111	30
2024-12-26 11:50:55.814	WT901BLE68(96416FE28A17)	0.332	-0.431	0.037	-3.662	-66.956	172.852	-75.41	-59.62	56.65	-33.908	-1.176	-1.960	0.76483	-0.24286	-0.59650	0.01266	23.3	13111	30
2024-12-26 11:50:55.900	WT901BLE68(96416FE28A17)	0.083	-0.690	0.026	14.893	-83.374	165.100	-86.98	-44.60	70.94	11.760	25.088	13.524	0.76483	-0.24286	-0.59650	0.01266	23.3	13111	30
2024-12-26 11:50:56.20	WT901BLE68(96416FE28A17)	-0.072	-0.897	0.055	26.062	-72.998	164.551	-90.27	-28.31	79.26	11.760	25.088	13.524	0.76483	-0.24286	-0.59650	0.01266	23.3	13111	30
2024-12-26 11:50:56.113	WT901BLE68(96416FE28A17)	-0.344	-1.017	0.192	29.663	-112.915	151.978	-90.71	-12.40	89.35	11.760	25.088	13.524	0.47879	-0.45889	-0.53003	0.52835	23.3	13111	30
2024-12-26 11:50:56.232	WT901BLE68(96416FE28A17)	-0.375	-1.042	0.307	29.663	-125.244	141.724	-88.10	2.25	99.85	11.760	25.088	13.524	0.47879	-0.45889	-0.53003	0.52835	23.3	13111	30
2024-12-26 11:50:56.290	WT901BLE68(96416FE28A17)	-0.220	-0.856	0.494	19.470	-214.844	167.175	-81.35	16.20	117.89	37.338	-1.470	-17.346	0.47879	-0.45889	-0.53003	0.52835	23.3	13111	30
2024-12-26 11:50:56.413	WT901BLE68(96416FE28A17)	-1.359	-0.587	1.046	-132.935	-257.141	238.281	-72.51	28.59	150.01	37.338	-1.470	-17.346	0.47879	-0.45889	-0.53003	0.52835	23.3	13111	30
2024-12-26 11:50:56.500	WT901BLE68(96416FE28A17)	-2.824	0.044	0.453	-364.319	-134.338	332.397	-74.66	48.59	-179.31	37.338	-1.470	-17.346	-0.48883	-0.28238	-0.60245	0.56412	23.3	13111	30
2024-12-26 11:50:56.622	WT901BLE68(96416FE28A17)	-1.258	-0.090	-0.686	-417.114	-452.576	168.030	-56.39	68.18	-114.19	37.338	-1.470	-17.346	-0.48883	-0.28238	-0.60245	0.56412	23.3	13111	30
2024-12-26 11:50:56.717	WT901BLE68(96416FE28A17)	0.134	1.928	-1.086	-155.273	611.511	-794.067	-93.76	45.35	-115.19	-9.016	8.232	-16.954	-0.48883	-0.28238	-0.60245	0.56412	23.3	13111	30
2024-12-26 11:50:56.831	WT901BLE68(96416FE28A17)	0.518	6.007	-2.868	846.069	711.670	64.514	-43.14	-13.68	167.61	-9.016	8.232	-16.954	-0.48883	-0.28238	-0.60245	0.56412	23.3	13111	30
2024-12-26 11:50:56.890	WT901BLE68(96416FE28A17)	0.951	2.274	1.546	246.155	-199.585	162.537	6.53	-4.27	176.94	-9.016	8.232	-16.954	-0.02380	0.17810	0.20120	0.96289	23.3	13111	30
2024-12-26 11:50:57.14	WT901BLE68(96416FE28A17)	0.664	2.028	1.458	118.103	-161.072	55.725	27.19	-23.96	177.86	-9.016	8.232	-16.954	-0.02380	0.17810	0.20120	0.96289	23.3	13111	30
2024-12-26 11:50:57.100	WT901BLE68(96416FE28A17)	0.823	1.264	1.001	2.075	-240.723	118.164	36.74	-43.88	174.30	-16.464	-56.252	14.210	-0.02380	0.17810	0.20120	0.96289	23.3	13111	30
2024-12-26 11:50:57.221	WT901BLE68(96416FE28A17)	0.817	0.809	0.944	-38.818	-39.978	118.225	36.40	-62.78	174.25	-16.464	-56.252	14.210	-0.02380	0.17810	0.20120	0.96289	23.3	13111	30
2024-12-26 11:50:57.314	WT901BLE68(96416FE28A17)	0.650	0.557	0.169	-130.310	-148.132	58.044	23.21	-72.15	-179.41	-16.464	-56.252	14.210	-0.08224	0.64536	0.09549	0.75336	23.3	13111	30
2024-12-26 11:50:57.432	WT901BLE68(96416FE28A17)	0.532	0.505	-0.373	-175.049	-148.254	78.674	0.71	-85.71	-170.76	-16.464	-56.252	14.210	-0.08224	0.64536	0.09549	0.75336	23.3	13111	30
2024-12-26 11:50:57.521	WT901BLE68(96416FE28A17)	0.828	0.422	-0.527	-166.809	-168.518	95.764	-162.21	-74.32	-24.29	-28.812	-46.550	13.132	-0.08224	0.64536	0.09549	0.75336	23.3	13111	30
2024-12-26 11:50:57.643	WT901BLE68(96416FE28A17)	2.192	0.472	-0.436	-183.472	123.108	71.106	-166.13	-68.81	-39.87	-28.812	-46.550	13.132	-0.08224	0.64536	0.09549	0.75336	23.3	13111	30
2024-12-26 11:50:57.701	WT901BLE68(96416FE28A17)	0.728	0.256	-0.146	-112.305	283.264	35.034	-154.17	-84.39	-66.11	-28.812	-46.550	13.132	0.33319	0.40759	-0.25201	0.81192	23.3	13111	30
2024-12-26 11:50:57.821	WT901BLE68(96416FE28A17)	0.343	0.223	0.959	-138.550	450.317	33.813	-14.55	-49.71	140.95	-28.812	-46.550	13.132	0.33319	0.40759	-0.25201	0.81192	23.3	13111	30
2024-12-26 11:50:57.915	WT901BLE68(96416FE28A17)	0.686	-0.079	0.089	-132.690	156.372	-70.190	-22.60	-27.52	126.09	16.072	-16.464	-34.594	0.33319	0.40759	-0.25201	0.81192	23.3	13111	30
2024-12-26 11:50:58.32	WT901BLE68(96416FE28A17)	-0.473	-0.058	0.576	6.287	59.814	-54.443	-19.83	-23.62	114.99	16.072	-16.464	-34.594	0.33319	0.40759	-0.25201	0.81192	23.3	13111	30
2024-12-26 11:50:58.121	WT901BLE68(96416FE28A17)	-0.064	-0.074	1.974	-87.341	176.208	-63.599	-19.61	-17.09	108.01	16.072	-16.464	-34.594	0.65814	-0.07288	-0.20282	0.72131	23.3	13111	30
2024-12-26 11:50:58.241	WT901BLE68(96416FE28A17)	0.364	-0.029	0.743	-55.359	153.870	-192.078	-24.23	-7.50	90.91	16.072	-16.464	-34.594	0.65814	-0.07288	-0.20282	0.72131	23.3	13111	30
2024-12-26 11:50:58.301	WT901BLE68(96416FE28A17)	0.553	0.086	0.077	142.517	236.694	-233.032	-19.00	3.17	62.86	32.242	9.996	-13.524	0.65814	-0.07288	-0.20282	0.72131	23.3	13111	30
2024-12-26 11:50:58.422	WT901BLE68(96416FE28A17)	0.054	0.363	0.092	359.009	247.620	-91.125	3.41	21.19	41.70	32.242	9.996	-13.524	0.65814	-0.07288	-0.20282	0.72131	23.3	13111	30
2024-12-26 11:50:58.511	WT901BLE68(96416FE28A17)	0.651	0.739	0.780	317.139	155.762	26.917	46.87	38.33	51.53	32.242	9.996	-13.524	0.75519	0.36475	0.48605	0.24548	23.3	13111	30
2024-12-26 11:50:58.632	WT901BLE68(96416FE28A17)	0.292	0.876	1.615	114.380	28.931	138.367	73.13	32.17	61.65	32.242	9.996	-13.524	0.75519	0.36475	0.48605	0.24548	23.3	13111	30
2024-12-26 11:50:58.722	WT901BLE68(96416FE28A17)	-0.651	2.011	1.529	-99.976	182.922	346.558	78.32	7.25	81.89	38.122	-42.728	-6.468	0.75519	0.36475	0.48605	0.24548	23.3	13111	30
2024-12-26 11:50:58.841	WT901BLE68(96416FE28A17)	2.353	1.922	0.324	-254.517	-288.330	56.152	58.97	-17.62	96.86	38.122	-42.728	-6.468	0.75519	0.36475	0.48605	0.24548	23.3	13111	30
2024-12-26 11:50:58.932	WT901BLE68(96416FE28A17)	1.379	3.595	1.018	282.471	-539.185	212.524	125.09	-48.79	-15.27	38.122	-42.728	-6.468	0.21857	0.52353	-0.12271	0.81424	23.3	13111	30
2024-12-26 11:50:59.50	WT901BLE68(96416FE28A17)	0.301	5.332	-1.387	28.870	782.288	586.792	-11.24	-43.47	168.56	38.122	-42.728	-6.468	0.21857	0.52353	-0.12271	0.81424	23.3	13111	30
2024-12-26 11:50:59.112	WT901BLE68(96416FE28A17)	-0.403	1.682	0.250	-121.033	52.734	362.732	-38.12	-9.54	-158.64	0.294	-19.404	-35.770	0.21857	0.52353	-0.12271	0.81424	23.3	13111	30
2024-12-26 11:50:59.232	WT901BLE68(96416FE28A17)	-0.206	0.994	0.136	-160.156	-99.670	223.877	-51.28	10.95	-138.97	0.294	-19.404	-35.770	0.21857	0.52353	-0.12271	0.81424	23.3	13111	30
2024-12-26 11:50:59.322	WT901BLE68(96416FE28A17)	-0.621	0.568	0.745	-81.787	-117.065	187.317	-51.37	24.05	-111.25	0.294	-19.404	-35.770	-0.68451	0.11310	-0.43289	0.57547	23.3	13111	30
2024-12-26 11:50:59.441	WT901BLE68(96416FE28A17)	0.281	0.028	0.679	-71.716	-147.644	19.104	-47.27	27.21	-91.60	0.294	-19.404	-35.770	-0.68451	0.11310	-0.43289	0.57547	23.3	13111	30
2024-12-26 11:50:59.531	WT901BLE68(96416FE28A17)	1.204	-0.586	0.785	-47.607	-176.697	-237.549	-47.10	5.58	-86.21	-31.556	-3.724	-12.936	-0.68451	0.11310	-0.43289	0.57547	23.3	13111	30
2024-12-26 11:50:59.652	WT901BLE68(96416FE28A17)	1.460	-0.824	0.692	-45.105	-38.818	-264.221	-48.13	-20.21	-100.37	-31.556	-3.724	-12.936	-0.68451	0.11310	-0.43289	0.57547	23.3	13111	30
2024-12-26 11:50:59.711	WT901BLE68(96416FE28A17)	0.763	-0.809	0.145	-103.516	-49.927	-127.319	-50.84	-37.10	-112.20	-31.556	-3.724	-12.936	-0.29010	0.50699	-0.21848	0.78165	23.3	13111	30
2024-12-26 11:50:59.832	WT901BLE68(96416FE28A17)	0.765	-0.615	0.103	-93.750	116.211	-21.973	-58.76	-41.28	-117.88	-31.556	-3.724	-12.936	-0.29010	0.50699	-0.21848	0.78165	23.3	13111	30
2024-12-26 11:50:59.922	WT901BLE68(96416FE28A17)	0.765	-0.393	0.434	-63.232	183.960	-41.748	-56.29	-37.25	-135.16	-20.482	-22.932	-27.636	-0.29010	0.50699	-0.21848	0.78165	23.3	13111	30
2024-12-26 11:51:0.41	WT901BLE68(96416FE28A17)	0.576	-0.497	1.531	-74.829	239.746	-63.660	-49.25	-31.56	-158.80	-20.482	-22.932	-27.636	-0.29010	0.50699	-0.21848	0.78165	23.3	13111	30
2024-12-26 11:51:0.132	WT901BLE68(96416FE28A17)	0.383	-0.339	1.803	-129.883	222.351	-4.456	-47.84	-17.06	177.78	-20.482	-22.932	-27.636	-0.29010	0.50699	-0.21848	0.78165	23.3	13111	30
2024-12-26 11:51:0.251	WT901BLE68(96416FE28A17)	-0.059	-0.081	0.987	-129.761	273.071	-34.546	-56.34	-4.96	156.39	-20.482	-22.932	-27.636	0.20013	-0.05908	-0.46951	0.85785	23.3	13111	30
2024-12-26 11:51:0.342	WT901BLE68(96416FE28A17)	-0.109	-0.225	0.239	26.489	251.709	-79.529	-59.78	2.26	128.66	38.514	1.372	-13.328	0.20013	-0.05908	-0.46951	0.85785	23.3	13111	30
2024-12-26 11:51:0.462	WT901BLE68(96416FE28A17)	-0.013	-0.158	0.233	156.982	174.622	-132.202	-49.55	4.33	103.63	38.514	1.372	-13.328	0.20013	-0.05908	-0.46951	0.85785	23.3	13111	30
2024-12-26 11:51:0.522	WT901BLE68(96416FE28A17)	-0.018	-0.126	0.422	212.036	119.141	-135.315	-31.40	5.56	83.79	38.514	1.372	-13.328	0.79953	-0.13528	-0.00879	0.58505	23.3	13111	30
2024-12-26 11:51:0.643	WT901BLE68(96416FE28A17)	0.123	0.027	0.541	247.498	43.274	-108.643	-9.78	8.55	69.80	38.514	1.372	-13.328	0.79953	-0.13528	-0.00879	0.58505	23.3	13111	30
2024-12-26 11:51:0.734	WT901BLE68(96416FE28A17)	0.340	0.201	0.820	258.911	-3.113	-84.412	13.92	9.73	61.08	31.850	-7.840	-25.970	0.79953	-0.13528	-0.00879	0.58505	23.3	13111	30
2024-12-26 11:51:0.852	WT901BLE68(96416FE28A17)	0.767	0.613	0.968	243.530	-36.499	-52.856	37.20	9.05	55.57	31.850	-7.840	-25.970	0.79953	-0.13528	-0.00879	0.58505	23.3	13111	30
2024-12-26 11:51:0.941	WT901BLE68(96416FE28A17)	0.460	1.217	1.266	223.145	78.003	55.420	59.68	6.13	55.74	31.850	-7.840	-25.970	0.63721	0.47150	0.36136	0.49084	23.3	13111	30
2024-12-26 11:51:1.62	WT901BLE68(96416FE28A17)	0.137	1.703	1.159	80.444	365.540	252.991	74.41	-3.95	85.65	31.850	-7.840	-25.970	0.63721	0.47150	0.36136	0.49084	23.3	13111	30
2024-12-26 11:51:1.122	WT901BLE68(96416FE28A17)	2.836	1.812	0.024	-174.500	-673.157	12.329	65.28	-19.64	88.56	-11.956	-44.688	-13.034	0.63721	0.47150	0.36136	0.49084	23.3	13111	30
2024-12-26 11:51:1.242	WT901BLE68(96416FE28A17)	-0.250	3.421	-0.078	482.544	723.694	149.170	131.36	-52.17	-4.33	-11.956	-44.688	-13.034	0.63721	0.47150	0.36136	0.49084	23.3	13111	30
2024-12-26 11:51:1.331	WT901BLE68(96416FE28A17)	-0.156	3.750	-0.761	-102.539	494.019	473.328	-18.12	-34.25	178.12	-11.956	-44.688	-13.034	-0.12619	0.11548	-0.33130	0.92783	23.3	13111	30
2024-12-26 11:51:1.453	WT901BLE68(96416FE28A17)	-0.662	1.244	0.209	-138.000	148.682	279.114	-42.01	-4.99	-160.78	-11.956	-44.688	-13.034	-0.12619	0.11548	-0.33130	0.92783	23.3	13111	30
2024-12-26 11:51:1.542	WT901BLE68(96416FE28A17)	-0.559	0.611	0.409	-222.656	-137.024	145.264	-58.20	15.67	-146.02	-11.956	-44.688	-13.034	-0.12619	0.11548	-0.33130	0.92783	23.3	13111	30
2024-12-26 11:51:1.662	WT901BLE68(96416FE28A17)	-0.002	-0.036	0.285	-211.060	-158.386	0.305	-70.96	23.35	-126.26	1.078	0.980	-30.674	-0.12619	0.11548	-0.33130	0.92783	23.3	13111	30
2024-12-26 11:51:1.751	WT901BLE68(96416FE28A17)	0.827	-0.646	0.072	-150.452	-98.877	-127.075	-81.83	17.48	-110.87	1.078	0.980	-30.674	-0.12619	0.11548	-0.33130	0.92783	23.3	13111	30
2024-12-26 11:51:1.872	WT901BLE68(96416FE28A17)	1.090	-1.028	0.146	27.771	119.568	-223.328	-86.75	0.61	-112.03	1.078	0.980	-30.674	-0.40054	0.38263	-0.56909	0.60760	23.3	13111	30
2024-12-26 11:51:1.931	WT901BLE68(96416FE28A17)	0.869	-1.170	0.461	122.559	68.787	-167.419	-74.75	-19.76	-126.57	1.078	0.980	-30.674	-0.40054	0.38263	-0.56909	0.60760	23.3	13111	30
2024-12-26 11:51:2.51	WT901BLE68(96416FE28A17)	0.567	-0.858	0.732	36.133	47.180	-48.584	-62.84	-28.78	-135.20	-24.304	-14.112	-24.892	-0.40054	0.38263	-0.56909	0.60760	23.3	13111	30
2024-12-26 11:51:2.141	WT901BLE68(96416FE28A17)	0.561	-0.656	0.532	-7.568	-5.066	-8.362	-60.69	-30.34	-138.64	-24.304	-14.112	-24.892	-0.16214	0.38425	-0.36847	0.83078	23.3	13111	30
2024-12-26 11:51:2.262	WT901BLE68(96416FE28A17)	0.915	-0.662	0.361	39.429	-29.480	-10.925	-59.41	-31.39	-139.63	-24.304	-14.112	-24.892	-0.16214	0.38425	-0.36847	0.83078	23.3	13111	30
2024-12-26 11:51:2.352	WT901BLE68(96416FE28A17)	0.791	-0.639	0.213	115.723	-54.749	9.338	-53.61	-34.85	-135.81	-24.304	-14.112	-24.892	-0.16214	0.38425	-0.36847	0.83078	23.3	13111	30
2024-12-26 11:51:2.473	WT901BLE68(96416FE28A17)	0.812	-0.637	0.101	148.010	-52.979	46.082	-44.60	-35.74	-130.17	-27.930	-28.028	-19.992	-0.16214	0.38425	-0.36847	0.83078	23.3	13111	30
2024-12-26 11:51:2.531	WT901BLE68(96416FE28A17)	0.912	-0.478	-0.127	127.502	-329.712	114.441	-44.49	-42.51	-110.07	-27.930	-28.028	-19.992	-0.16214	0.38425	-0.36847	0.83078	23.3	13111	30
2024-12-26 11:51:2.652	WT901BLE68(96416FE28A17)	0.898	-0.474	-1.229	127.258	-486.938	33.020	-106.09	-52.61	-20.27	-27.930	-28.028	-19.992	-0.47052	0.76471	0.15656	0.41132	23.3	13111	30
2024-12-26 11:51:2.742	WT901BLE68(96416FE28A17)	0.363	-0.258	-1.118	141.907	-240.967	23.621	-123.23	-36.50	19.46	-27.930	-28.028	-19.992	-0.47052	0.76471	0.15656	0.41132	23.3	13111	30
2024-12-26 11:51:2.862	WT901BLE68(96416FE28A17)	0.139	-0.099	-1.023	104.309	-139.832	10.254	-120.15	-26.01	34.78	4.018	-6.860	49.686	-0.47052	0.76471	0.15656	0.41132	23.3	13111	30
2024-12-26 11:51:2.952	WT901BLE68(96416FE28A17)	0.157	-0.178	-0.543	19.409	-92.285	-71.838	-122.88	-24.34	48.32	4.018	-6.860	49.686	-0.47052	0.76471	0.15656	0.41132	23.3	13111	30
2024-12-26 11:51:3.72	WT901BLE68(96416FE28A17)	0.485	-0.153	-0.313	-56.824	-48.340	-131.409	-133.58	-29.33	62.23	4.018	-6.860	49.686	-0.44666	0.70956	0.54489	0.00217	23.3	13111	30
2024-12-26 11:51:3.162	WT901BLE68(96416FE28A17)	0.519	0.015	-0.609	-124.756	-30.884	-128.052	-152.68	-34.84	77.74	4.018	-6.860	49.686	-0.44666	0.70956	0.54489	0.00217	23.3	13111	30
2024-12-26 11:51:3.292	WT901BLE68(96416FE28A17)	0.985	0.074	-0.785	-163.696	24.414	-98.816	-174.60	-38.98	90.68	8.624	-11.368	48.118	-0.44666	0.70956	0.54489	0.00217	23.3	13111	30
2024-12-26 11:51:3.342	WT901BLE68(96416FE28A17)	3.897	0.719	-1.075	-170.654	97.534	-132.080	158.51	-40.26	103.49	8.624	-11.368	48.118	-0.44666	0.70956	0.54489	0.00217	23.3	13111	30
2024-12-26 11:51:3.462	WT901BLE68(96416FE28A17)	-1.602	2.546	0.710	-37.231	894.104	-278.625	104.72	-45.50	165.21	8.624	-11.368	48.118	-0.28613	0.23398	0.66971	0.64404	23.3	13111	30
2024-12-26 11:51:3.552	WT901BLE68(96416FE28A17)	-0.950	7.107	-1.980	-705.139	-925.415	-323.242	49.86	-19.84	-160.78	8.624	-11.368	48.118	-0.28613	0.23398	0.66971	0.64404	23.3	13111	30
2024-12-26 11:51:3.672	WT901BLE68(96416FE28A17)	-0.111	4.045	-1.743	-241.577	70.251	636.841	-129.19	-54.73	-70.43	-34.888	-29.302	11.956	-0.28613	0.23398	0.66971	0.64404	23.3	13111	30
2024-12-26 11:51:3.760	WT901BLE68(96416FE28A17)	-0.447	2.064	-1.345	-60.425	163.269	317.505	-113.31	-28.64	-115.38	-34.888	-29.302	11.956	-0.28613	0.23398	0.66971	0.64404	23.3	13111	30
2024-12-26 11:51:3.895	WT901BLE68(96416FE28A17)	-0.303	0.452	-0.592	-37.354	70.496	227.722	-116.98	-8.14	-134.46	-34.888	-29.302	11.956	-0.14691	0.35535	-0.77557	0.50052	23.3	13111	30
2024-12-26 11:51:3.943	WT901BLE68(96416FE28A17)	-0.177	-0.447	-0.463	-43.884	115.356	90.698	-125.96	0.57	-149.11	-34.888	-29.302	11.956	-0.14691	0.35535	-0.77557	0.50052	23.3	13111	30
2024-12-26 11:51:4.61	WT901BLE68(96416FE28A17)	-0.037	-0.524	-0.442	-74.463	142.517	13.611	-134.71	-3.94	-162.50	-2.940	25.088	1.176	-0.14691	0.35535	-0.77557	0.50052	23.3	13111	30
2024-12-26 11:51:4.154	WT901BLE68(96416FE28A17)	0.097	-0.449	-0.493	-108.459	112.915	-36.011	-144.01	-12.30	-168.70	-2.940	25.088	1.176	-0.14691	0.35535	-0.77557	0.50052	23.3	13111	30
2024-12-26 11:51:4.271	WT901BLE68(96416FE28A17)	0.323	-0.305	-0.535	-122.070	137.878	-117.554	-156.06	-24.69	-167.12	-2.940	25.088	1.176	0.21475	0.16385	-0.94083	0.20435	23.3	13111	30
2024-12-26 11:51:4.364	WT901BLE68(96416FE28A17)	0.784	0.311	-0.743	-145.691	104.736	-176.697	-176.91	-40.50	-153.01	-2.940	25.088	1.176	0.21475	0.16385	-0.94083	0.20435	23.3	13111	30
2024-12-26 11:51:4.481	WT901BLE68(96416FE28A17)	1.292	0.524	-0.989	-116.455	139.404	-240.662	147.65	-44.82	-120.22	-33.320	1.274	15.876	0.21475	0.16385	-0.94083	0.20435	23.3	13111	30
2024-12-26 11:51:4.571	WT901BLE68(96416FE28A17)	0.513	0.664	-0.850	23.315	201.965	-219.604	116.56	-38.60	-77.74	-33.320	1.274	15.876	0.21475	0.16385	-0.94083	0.20435	23.3	13111	30
2024-12-26 11:51:4.700	WT901BLE68(96416FE28A17)	0.748	0.505	-0.284	185.059	203.674	-125.427	113.73	-32.90	-47.41	-33.320	1.274	15.876	0.57361	0.68109	-0.45468	0.01553	23.3	13111	30
2024-12-26 11:51:4.760	WT901BLE68(96416FE28A17)	0.632	1.310	-0.562	317.871	386.353	-47.485	117.77	-39.56	-6.16	-33.320	1.274	15.876	0.57361	0.68109	-0.45468	0.01553	23.3	13111	30
2024-12-26 11:51:4.872	WT901BLE68(96416FE28A17)	0.703	1.556	-0.685	316.223	384.033	125.427	114.76	-61.20	42.88	-9.506	-55.664	-8.526	0.57361	0.68109	-0.45468	0.01553	23.3	13111	30
2024-12-26 11:51:4.963	WT901BLE68(96416FE28A17)	1.311	0.806	-0.764	185.669	188.782	174.866	51.31	-76.59	135.23	-9.506	-55.664	-8.526	0.57361	0.68109	-0.45468	0.01553	23.3	13111	30
2024-12-26 11:51:5.81	WT901BLE68(96416FE28A17)	1.213	0.518	-0.968	201.538	121.826	175.781	-3.97	-74.06	-151.44	-9.506	-55.664	-8.526	-0.22900	0.57343	0.12668	0.77628	23.3	13111	30
2024-12-26 11:51:5.173	WT901BLE68(96416FE28A17)	1.254	0.908	-0.498	185.852	25.818	190.308	-27.58	-64.26	-108.32	-9.506	-55.664	-8.526	-0.22900	0.57343	0.12668	0.77628	23.3	13111	30
2024-12-26 11:51:5.301	WT901BLE68(96416FE28A17)	0.828	0.775	0.083	154.846	-25.391	199.341	-43.15	-57.77	-74.10	-38.122	-20.384	18.620	-0.22900	0.57343	0.12668	0.77628	23.3	13111	30
2024-12-26 11:51:5.353	WT901BLE68(96416FE28A17)	0.739	0.228	0.209	102.417	-81.787	141.296	-48.12	-51.18	-49.27	-38.122	-20.384	18.620	-0.22900	0.57343	0.12668	0.77628	23.3	13111	30
2024-12-26 11:51:5.480	WT901BLE68(96416FE28A17)	0.627	-0.009	0.189	86.426	-85.327	69.702	-52.55	-51.38	-29.54	-38.122	-20.384	18.620	-0.73557	0.48306	0.28152	0.38239	23.3	13111	30
2024-12-26 11:51:5.563	WT901BLE68(96416FE28A17)	0.576	-0.189	0.283	79.895	-45.227	30.151	-53.09	-53.82	-17.45	-38.122	-20.384	18.620	-0.73557	0.48306	0.28152	0.38239	23.3	13111	30
2024-12-26 11:51:5.681	WT901BLE68(96416FE28A17)	0.424	-0.062	0.309	75.012	-33.569	-5.554	-51.09	-57.26	-10.52	-24.696	11.956	22.736	-0.73557	0.48306	0.28152	0.38239	23.3	13111	30
2024-12-26 11:51:5.783	WT901BLE68(96416FE28A17)	0.645	0.113	0.265	62.134	-46.814	-69.519	-43.14	-63.86	-11.97	-24.696	11.956	22.736	-0.73557	0.48306	0.28152	0.38239	23.3	13111	30
2024-12-26 11:51:5.891	WT901BLE68(96416FE28A17)	0.735	0.235	0.222	33.264	-60.181	-113.464	-21.09	-74.43	-30.56	-24.696	11.956	22.736	-0.71060	0.27936	0.55374	0.33206	23.3	13111	30
2024-12-26 11:51:5.984	WT901BLE68(96416FE28A17)	2.442	0.841	0.421	-45.288	-82.031	-166.809	39.94	-76.64	-94.51	-24.696	11.956	22.736	-0.71060	0.27936	0.55374	0.33206	23.3	13111	30
2024-12-26 11:51:6.101	WT901BLE68(96416FE28A17)	-3.102	2.684	1.791	17.944	300.476	-369.751	73.98	-53.28	-133.48	-35.868	-21.854	19.698	-0.71060	0.27936	0.55374	0.33206	23.3	13111	30
2024-12-26 11:51:6.163	WT901BLE68(96416FE28A17)	1.120	8.605	-2.076	-642.944	-799.377	-609.253	53.37	-14.21	-155.05	-35.868	-21.854	19.698	-0.71060	0.27936	0.55374	0.33206	23.3	13111	30
2024-12-26 11:51:6.282	WT901BLE68(96416FE28A17)	0.383	4.724	-1.000	-233.704	-397.522	753.784	-141.66	-50.03	-60.17	-35.868	-21.854	19.698	-0.07971	0.78180	-0.38318	0.48529	23.3	13111	30
2024-12-26 11:51:6.385	WT901BLE68(96416FE28A17)	-0.657	2.647	-1.196	5.737	195.923	349.609	-118.90	-25.32	-110.26	-35.868	-21.854	19.698	-0.07971	0.78180	-0.38318	0.48529	23.3	13111	30
2024-12-26 11:51:6.491	WT901BLE68(96416FE28A17)	-0.655	0.799	-0.414	-36.316	74.097	221.252	-120.44	-6.95	-133.14	-23.324	14.014	3.626	-0.07971	0.78180	-0.38318	0.48529	23.3	13111	30
2024-12-26 11:51:6.585	WT901BLE68(96416FE28A17)	-0.261	0.154	-0.296	-77.515	132.385	-0.366	-131.06	-5.70	-146.26	-23.324	14.014	3.626	-0.07971	0.78180	-0.38318	0.48529	23.3	13111	30
2024-12-26 11:51:6.701	WT901BLE68(96416FE28A17)	0.586	0.100	-0.277	-122.253	142.761	-133.606	-144.65	-17.46	-149.27	-23.324	14.014	3.626	0.12259	0.31787	-0.89444	0.28952	23.3	13111	30
2024-12-26 11:51:6.761	WT901BLE68(96416FE28A17)	1.378	0.069	-1.071	-138.245	176.758	-275.146	-168.97	-38.29	-133.75	-23.324	14.014	3.626	0.12259	0.31787	-0.89444	0.28952	23.3	13111	30
2024-12-26 11:51:6.883	WT901BLE68(96416FE28A17)	1.939	0.637	-1.702	93.506	225.464	-353.210	150.77	-47.79	-84.75	-33.222	-14.014	-10.094	0.12259	0.31787	-0.89444	0.28952	23.3	13111	30
2024-12-26 11:51:6.985	WT901BLE68(96416FE28A17)	1.333	1.310	-0.906	420.959	290.649	-171.448	132.50	-49.33	-22.76	-33.222	-14.014	-10.094	0.12259	0.31787	-0.89444	0.28952	23.3	13111	30
2024-12-26 11:51:7.91	WT901BLE68(96416FE28A17)	1.173	1.719	-0.277	398.804	265.381	147.217	150.57	-69.27	10.29	-33.222	-14.014	-10.094	0.09512	0.79016	-0.05038	0.60330	23.3	13111	30
2024-12-26 11:51:7.184	WT901BLE68(96416FE28A17)	0.385	1.656	-0.667	214.905	-75.195	152.100	-139.50	-72.41	-32.66	-33.222	-14.014	-10.094	0.09512	0.79016	-0.05038	0.60330	23.3	13111	30
2024-12-26 11:51:7.301	WT901BLE68(96416FE28A17)	0.025	1.338	-0.385	200.500	-17.761	101.379	-115.19	-61.80	-36.66	-27.440	-40.670	27.636	0.09512	0.79016	-0.05038	0.60330	23.3	13111	30
2024-12-26 11:51:7.392	WT901BLE68(96416FE28A17)	0.778	0.282	0.064	135.620	-38.208	-0.061	-97.58	-61.16	-33.07	-27.440	-40.670	27.636	0.09512	0.79016	-0.05038	0.60330	23.3	13111	30
2024-12-26 11:51:7.512	WT901BLE68(96416FE28A17)	1.511	-0.031	-0.519	69.153	-115.479	-58.594	-99.32	-68.93	-17.33	-27.440	-40.670	27.636	-0.45444	0.67767	0.31387	0.48541	23.3	13111	30
2024-12-26 11:51:7.584	WT901BLE68(96416FE28A17)	0.830	0.135	-0.762	95.215	-42.603	-0.916	-120.93	-70.13	13.83	-27.440	-40.670	27.636	-0.45444	0.67767	0.31387	0.48541	23.3	13111	30
2024-12-26 11:51:7.691	WT901BLE68(96416FE28A17)	0.432	0.187	-0.336	88.806	-20.691	-12.817	-123.58	-68.74	25.63	-15.876	-16.562	46.746	-0.45444	0.67767	0.31387	0.48541	23.3	13111	30
2024-12-26 11:51:7.786	WT901BLE68(96416FE28A17)	0.481	0.175	-0.196	76.965	-18.433	-71.655	-133.30	-71.80	43.49	-15.876	-16.562	46.746	-0.45444	0.67767	0.31387	0.48541	23.3	13111	30
2024-12-26 11:51:7.901	WT901BLE68(96416FE28A17)	0.772	0.146	-0.196	62.927	-34.546	-82.092	-158.44	-75.21	75.74	-15.876	-16.562	46.746	-0.48004	0.53049	0.58551	0.38107	23.3	13111	30
2024-12-26 11:51:7.991	WT901BLE68(96416FE28A17)	1.060	0.200	-0.308	52.979	1.038	-63.232	177.57	-74.73	105.65	-15.876	-16.562	46.746	-0.48004	0.53049	0.58551	0.38107	23.3	13111	30
2024-12-26 11:51:8.113	WT901BLE68(96416FE28A17)	1.198	0.438	-0.449	-16.541	-3.906	-108.459	149.79	-70.88	134.63	-17.150	-14.014	44.590	-0.48004	0.53049	0.58551	0.38107	23.3	13111	30
2024-12-26 11:51:8.185	WT901BLE68(96416FE28A17)	1.887	1.155	-0.176	-73.364	56.091	-168.701	117.57	-61.17	162.89	-17.150	-14.014	44.590	-0.48004	0.53049	0.58551	0.38107	23.3	13111	30
2024-12-26 11:51:8.291	WT901BLE68(96416FE28A17)	-1.650	2.100	0.529	-70.251	211.548	-186.157	89.79	-46.05	-173.40	-17.150	-14.014	44.590	-0.31992	0.15195	0.63104	0.69009	23.3	13111	30
2024-12-26 11:51:8.385	WT901BLE68(96416FE28A17)	5.173	5.805	1.521	-555.725	-178.650	-222.290	60.64	-22.07	-154.13	-17.150	-14.014	44.590	-0.31992	0.15195	0.63104	0.69009	23.3	13111	30
2024-12-26 11:51:8.501	WT901BLE68(96416FE28A17)	0.233	3.511	0.623	-321.655	-829.590	885.193	-138.47	-68.84	-48.92	-32.634	-30.380	22.050	-0.31992	0.15195	0.63104	0.69009	23.3	13111	30
2024-12-26 11:51:8.591	WT901BLE68(96416FE28A17)	-0.415	2.258	-1.137	64.209	244.812	278.259	-131.11	-13.83	-92.38	-32.634	-30.380	22.050	-0.31992	0.15195	0.63104	0.69009	23.3	13111	30
2024-12-26 11:51:8.712	WT901BLE68(96416FE28A17)	-0.633	0.870	-0.617	8.484	178.406	186.462	-125.26	-12.47	-127.74	-32.634	-30.380	22.050	-0.08710	0.34360	-0.82620	0.43777	23.3	13111	30
2024-12-26 11:51:8.771	WT901BLE68(96416FE28A17)	-0.130	0.000	-0.406	-57.434	50.964	100.830	-131.15	-6.82	-143.75	-32.634	-30.380	22.050	-0.08710	0.34360	-0.82620	0.43777	23.3	13111	30
2024-12-26 11:51:8.922	WT901BLE68(96416FE28A17)	0.247	-0.356	-0.252	-84.839	100.647	-25.757	-141.41	-8.57	-149.64	-16.072	20.874	4.018	-0.08710	0.34360	-0.82620	0.43777	23.3	13111	30
2024-12-26 11:51:8.991	WT901BLE68(96416FE28A17)	0.478	-0.328	-0.521	-143.616	93.079	-103.271	-154.76	-18.31	-148.04	-16.072	20.874	4.018	-0.08710	0.34360	-0.82620	0.43777	23.3	13111	30
2024-12-26 11:51:9.101	WT901BLE68(96416FE28A17)	0.435	-0.138	-0.844	-184.875	49.072	-125.244	-175.37	-27.88	-136.25	-16.072	20.874	4.018	0.24976	0.40204	-0.87909	0.05573	23.3	13111	30
2024-12-26 11:51:9.191	WT901BLE68(96416FE28A17)	0.905	0.277	-1.409	-181.702	50.903	-178.894	158.10	-28.62	-118.42	-16.072	20.874	4.018	0.24976	0.40204	-0.87909	0.05573	23.3	13111	30
2024-12-26 11:51:9.311	WT901BLE68(96416FE28A17)	1.159	0.462	-1.602	-40.100	104.736	-228.271	136.87	-23.80	-92.35	-38.514	-20.482	10.878	0.24976	0.40204	-0.87909	0.05573	23.3	13111	30
2024-12-26 11:51:9.401	WT901BLE68(96416FE28A17)	1.173	0.428	-0.949	185.181	173.706	-203.186	138.15	-19.24	-63.57	-38.514	-20.482	10.878	0.24976	0.40204	-0.87909	0.05573	23.3	13111	30
2024-12-26 11:51:9.521	WT901BLE68(96416FE28A17)	1.316	0.672	-0.669	278.809	163.025	-79.529	155.71	-26.71	-39.63	-38.514	-20.482	10.878	0.14340	0.91119	-0.30087	0.24200	23.3	13111	30
2024-12-26 11:51:9.585	WT901BLE68(96416FE28A17)	0.874	0.930	-0.403	274.353	72.998	36.377	-178.09	-34.84	-34.39	-38.514	-20.482	10.878	0.14340	0.91119	-0.30087	0.24200	23.3	13111	30
2024-12-26 11:51:9.701	WT901BLE68(96416FE28A17)	0.650	0.705	-0.186	211.243	113.464	77.698	-149.14	-43.76	-43.23	-35.476	-36.162	15.288	0.14340	0.91119	-0.30087	0.24200	23.3	13111	30
2024-12-26 11:51:9.793	WT901BLE68(96416FE28A17)	0.852	0.247	-0.033	121.582	78.918	43.274	-124.58	-49.68	-54.23	-35.476	-36.162	15.288	0.14340	0.91119	-0.30087	0.24200	23.3	13111	30
2024-12-26 11:51:9.910	WT901BLE68(96416FE28A17)	0.840	-0.347	-0.084	29.053	28.198	24.109	-111.53	-52.70	-60.83	-35.476	-36.162	15.288	-0.25479	0.75830	-0.15546	0.57947	23.3	13111	30
2024-12-26 11:51:10.0	WT901BLE68(96416FE28A17)	0.878	-0.478	-0.017	7.629	39.978	26.428	-106.84	-53.14	-64.69	-35.476	-36.162	15.288	-0.25479	0.75830	-0.15546	0.57947	23.3	13111	30
2024-12-26 11:51:10.120	WT901BLE68(96416FE28A17)	0.835	-0.469	-0.043	10.742	44.861	20.508	-101.26	-52.48	-69.92	-40.768	-24.794	9.898	-0.25479	0.75830	-0.15546	0.57947	23.3	13111	30
2024-12-26 11:51:10.189	WT901BLE68(96416FE28A17)	0.881	-0.438	0.006	-8.423	8.301	20.996	-96.91	-51.59	-74.83	-40.768	-24.794	9.898	-0.25479	0.75830	-0.15546	0.57947	23.3	13111	30
2024-12-26 11:51:10.331	WT901BLE68(96416FE28A17)	0.821	-0.427	0.056	-16.113	6.104	2.808	-96.15	-51.03	-77.18	-40.768	-24.794	9.898	-0.26208	0.70285	-0.19809	0.63086	23.3	13111	30
2024-12-26 11:51:10.392	WT901BLE68(96416FE28A17)	0.897	-0.487	0.044	-15.442	7.080	0.122	-96.19	-51.74	-78.74	-40.768	-24.794	9.898	-0.26208	0.70285	-0.19809	0.63086	23.3	13111	30
2024-12-26 11:51:10.511	WT901BLE68(96416FE28A17)	0.895	-0.433	0.063	-11.353	0.610	-2.869	-96.51	-52.46	-79.44	-41.062	-22.246	6.468	-0.26208	0.70285	-0.19809	0.63086	23.3	13111	30
2024-12-26 11:51:10.600	WT901BLE68(96416FE28A17)	0.924	-0.398	0.057	-5.493	0.366	-7.874	-96.77	-53.61	-79.54	-41.062	-22.246	6.468	-0.26208	0.70285	-0.19809	0.63086	23.3	13111	30
