time	DeviceName	AccX(g)	AccY(g)	AccZ(g)	AsX(°/s)	AsY(°/s)	AsZ(°/s)	AngleX(°)	AngleY(°)	AngleZ(°)	HX(uT)	HY(uT)	HZ(uT)	Q0()	Q1()	Q2()	Q3()	Temperature(°C)	Version()	Battery level(%)
2025-1-4 10:35:5.533	WT901BLE68(96416FE28A17)	-0.978	0.109	0.104	2.075	-13.489	-5.554	9.37	77.15	-142.91	75.362	-17.444	-36.946	-0.18283	-0.61206	-0.12222	0.75955	24.8	13111	30
2025-1-4 10:35:5.655	WT901BLE68(96416FE28A17)	-0.968	0.075	0.146	5.371	-20.264	17.273	13.43	75.20	-137.44	75.362	-17.444	-36.946	-0.18283	-0.61206	-0.12222	0.75955	24.8	13111	30
2025-1-4 10:35:5.744	WT901BLE68(96416FE28A17)	-1.005	0.075	0.232	-5.310	-13.367	-0.122	15.55	73.80	-133.42	75.362	-17.444	-36.946	-0.24466	-0.58521	-0.14047	0.76016	24.8	13111	30
2025-1-4 10:35:5.864	WT901BLE68(96416FE28A17)	-0.961	0.096	0.248	-11.414	-7.813	4.028	14.48	73.20	-132.17	75.362	-17.444	-36.946	-0.24466	-0.58521	-0.14047	0.76016	24.8	13111	30
2025-1-4 10:35:5.924	WT901BLE68(96416FE28A17)	-0.947	0.079	0.237	-10.315	-8.118	4.150	14.12	72.18	-129.98	73.108	-18.718	-40.180	-0.24466	-0.58521	-0.14047	0.76016	24.8	13111	30
2025-1-4 10:35:6.46	WT901BLE68(96416FE28A17)	-0.978	0.083	0.283	-7.690	-5.615	2.502	13.84	71.30	-128.06	73.108	-18.718	-40.180	-0.24466	-0.58521	-0.14047	0.76016	24.8	13111	30
2025-1-4 10:35:6.133	WT901BLE68(96416FE28A17)	-1.061	0.096	0.288	-7.751	-4.028	-0.122	13.30	71.07	-126.83	73.108	-18.718	-40.180	-0.30600	-0.55676	-0.17755	0.75146	24.8	13111	30
2025-1-4 10:35:6.256	WT901BLE68(96416FE28A17)	-0.953	0.074	0.358	-11.292	29.724	1.404	14.27	71.89	-123.90	73.108	-18.718	-40.180	-0.30600	-0.55676	-0.17755	0.75146	24.8	13111	30
2025-1-4 10:35:6.344	WT901BLE68(96416FE28A17)	-0.934	0.086	0.289	-6.348	-0.183	-4.700	13.62	73.02	-123.10	73.598	-17.542	-39.396	-0.30600	-0.55676	-0.17755	0.75146	24.8	13111	30
2025-1-4 10:35:6.466	WT901BLE68(96416FE28A17)	-0.993	0.086	0.206	-14.771	10.864	-0.366	12.51	73.54	-122.23	73.598	-17.542	-39.396	-0.30600	-0.55676	-0.17755	0.75146	24.8	13111	30
2025-1-4 10:35:6.527	WT901BLE68(96416FE28A17)	-1.091	0.137	0.341	-20.386	11.658	-5.493	11.65	75.01	-120.49	73.598	-17.542	-39.396	-0.34683	-0.55945	-0.24081	0.71317	24.8	13111	30
2025-1-4 10:35:6.645	WT901BLE68(96416FE28A17)	-0.915	0.294	0.382	-59.509	-48.157	3.174	6.55	72.98	-120.32	73.598	-17.542	-39.396	-0.34683	-0.55945	-0.24081	0.71317	24.8	13111	30
2025-1-4 10:35:6.734	WT901BLE68(96416FE28A17)	-0.931	0.185	0.305	-66.467	-58.655	32.410	7.87	68.00	-110.02	71.050	-11.956	-41.258	-0.34683	-0.55945	-0.24081	0.71317	24.8	13111	30
2025-1-4 10:35:6.863	WT901BLE68(96416FE28A17)	-0.499	-0.123	0.435	-61.157	-138.428	13.000	3.78	58.85	-105.41	71.050	-11.956	-41.258	-0.34683	-0.55945	-0.24081	0.71317	24.8	13111	30
2025-1-4 10:35:6.946	WT901BLE68(96416FE28A17)	-0.207	-0.306	0.625	-44.006	-136.536	-31.982	-1.98	46.58	-108.12	71.050	-11.956	-41.258	-0.54004	-0.26874	-0.22974	0.76370	24.8	13111	30
2025-1-4 10:35:7.66	WT901BLE68(96416FE28A17)	-0.231	-0.994	1.397	17.151	-161.194	-117.065	-9.50	29.01	-120.36	71.050	-11.956	-41.258	-0.54004	-0.26874	-0.22974	0.76370	24.8	13111	30
2025-1-4 10:35:7.159	WT901BLE68(96416FE28A17)	-0.154	-0.752	1.024	89.844	-109.192	-207.214	-9.07	16.12	-140.61	28.322	-7.938	-55.762	-0.54004	-0.26874	-0.22974	0.76370	24.8	13111	30
2025-1-4 10:35:7.277	WT901BLE68(96416FE28A17)	-0.483	-0.483	0.720	22.949	-124.329	-231.812	-7.84	2.49	-164.92	28.322	-7.938	-55.762	-0.54004	-0.26874	-0.22974	0.76370	24.8	13111	30
2025-1-4 10:35:7.336	WT901BLE68(96416FE28A17)	0.031	-0.599	1.129	-52.917	-108.337	-207.520	-9.52	-10.50	173.66	28.322	-7.938	-55.762	0.15195	0.12555	-0.11340	0.97375	24.8	13111	30
2025-1-4 10:35:7.456	WT901BLE68(96416FE28A17)	-0.090	-0.247	0.759	-46.814	18.005	-212.708	-10.87	-17.89	155.12	28.322	-7.938	-55.762	0.15195	0.12555	-0.11340	0.97375	24.8	13111	30
2025-1-4 10:35:7.575	WT901BLE68(96416FE28A17)	-0.829	-0.153	0.185	-28.992	258.301	-252.747	-10.03	-8.83	130.60	20.972	-37.828	-53.214	0.15195	0.12555	-0.11340	0.97375	24.8	13111	30
2025-1-4 10:35:7.666	WT901BLE68(96416FE28A17)	1.729	-0.716	-1.088	290.100	724.304	-248.108	-9.33	40.19	96.65	20.972	-37.828	-53.214	0.15195	0.12555	-0.11340	0.97375	24.8	13111	30
2025-1-4 10:35:7.785	WT901BLE68(96416FE28A17)	-1.184	-3.651	-2.889	483.521	520.020	-450.745	-101.34	62.41	-42.85	20.972	-37.828	-53.214	0.69583	-0.53546	0.47635	-0.04523	24.8	13111	30
2025-1-4 10:35:7.877	WT901BLE68(96416FE28A17)	-0.712	-7.706	-1.044	-697.571	-620.850	-388.428	-97.17	6.67	-21.36	20.972	-37.828	-53.214	0.69583	-0.53546	0.47635	-0.04523	24.8	13111	30
2025-1-4 10:35:7.964	WT901BLE68(96416FE28A17)	0.717	-9.475	-2.520	-1080.627	-1423.035	674.072	147.13	54.70	-0.32	62.132	-33.908	-23.618	0.69583	-0.53546	0.47635	-0.04523	24.8	13111	30
2025-1-4 10:35:8.62	WT901BLE68(96416FE28A17)	0.703	-3.872	-0.802	-12.085	-319.336	740.784	46.07	-27.76	-55.96	62.132	-33.908	-23.618	0.69583	-0.53546	0.47635	-0.04523	24.8	13111	30
2025-1-4 10:35:8.144	WT901BLE68(96416FE28A17)	0.565	-0.931	0.080	121.277	137.756	97.168	23.18	-53.23	-8.46	62.132	-33.908	-23.618	-0.90308	-0.18506	0.37811	-0.08453	24.8	13111	30
2025-1-4 10:35:8.263	WT901BLE68(96416FE28A17)	0.714	-0.056	1.962	3.235	96.252	-75.256	23.13	-41.77	2.35	62.132	-33.908	-23.618	-0.90308	-0.18506	0.37811	-0.08453	24.8	13111	30
2025-1-4 10:35:8.357	WT901BLE68(96416FE28A17)	-0.166	0.480	1.678	-38.940	56.152	-115.845	22.32	-36.23	3.16	40.278	-18.326	-58.408	-0.90308	-0.18506	0.37811	-0.08453	24.8	13111	30
2025-1-4 10:35:8.476	WT901BLE68(96416FE28A17)	-0.325	0.064	0.494	101.807	77.332	-180.847	28.87	-18.62	-3.04	40.278	-18.326	-58.408	-0.90308	-0.18506	0.37811	-0.08453	24.8	13111	30
2025-1-4 10:35:8.564	WT901BLE68(96416FE28A17)	-1.000	-0.243	0.340	149.475	18.066	-272.278	41.87	0.92	-11.41	40.278	-18.326	-58.408	-0.89859	-0.38818	0.00839	0.20407	24.8	13111	30
2025-1-4 10:35:8.714	WT901BLE68(96416FE28A17)	-1.538	-0.448	1.559	-14.038	-96.802	-418.640	41.01	20.58	-44.86	40.278	-18.326	-58.408	-0.89859	-0.38818	0.00839	0.20407	24.8	13111	30
2025-1-4 10:35:8.746	WT901BLE68(96416FE28A17)	-0.735	-0.197	2.142	183.105	-126.038	-345.886	24.05	39.85	-93.69	35.084	-17.836	-57.918	-0.89859	-0.38818	0.00839	0.20407	24.8	13111	30
2025-1-4 10:35:8.865	WT901BLE68(96416FE28A17)	-0.648	-0.244	0.593	72.205	-197.510	-266.357	9.19	31.20	-141.51	35.084	-17.836	-57.918	-0.89859	-0.38818	0.00839	0.20407	24.8	13111	30
2025-1-4 10:35:8.961	WT901BLE68(96416FE28A17)	-0.271	-0.406	1.208	-10.132	-264.832	-206.360	0.78	9.34	-167.63	35.084	-17.836	-57.918	0.03134	-0.00577	-0.03223	0.99893	24.8	13111	30
2025-1-4 10:35:9.74	WT901BLE68(96416FE28A17)	-0.275	0.106	0.592	-79.956	-23.865	-250.916	-6.58	-0.91	167.64	35.084	-17.836	-57.918	0.03134	-0.00577	-0.03223	0.99893	24.8	13111	30
2025-1-4 10:35:9.167	WT901BLE68(96416FE28A17)	-0.332	0.068	0.231	-99.487	191.956	-283.875	-16.16	2.46	141.43	37.632	-46.452	-50.372	0.03134	-0.00577	-0.03223	0.99893	24.8	13111	30
2025-1-4 10:35:9.286	WT901BLE68(96416FE28A17)	1.086	-0.237	-0.684	67.810	442.505	-255.432	-28.55	24.19	106.00	37.632	-46.452	-50.372	0.03134	-0.00577	-0.03223	0.99893	24.8	13111	30
2025-1-4 10:35:9.343	WT901BLE68(96416FE28A17)	-1.632	-4.292	-3.205	454.590	356.995	-420.715	-66.97	45.74	11.46	37.632	-46.452	-50.372	0.80820	-0.55212	0.19070	0.07404	24.8	13111	30
2025-1-4 10:35:9.466	WT901BLE68(96416FE28A17)	-1.078	-8.086	-0.418	-580.566	-380.920	-453.796	-88.83	-3.59	7.38	37.632	-46.452	-50.372	0.80820	-0.55212	0.19070	0.07404	24.8	13111	30
2025-1-4 10:35:9.562	WT901BLE68(96416FE28A17)	0.660	-9.958	-3.274	-1076.843	-1671.021	483.948	167.20	22.58	41.27	61.642	-34.104	-21.756	0.80820	-0.55212	0.19070	0.07404	24.8	13111	30
2025-1-4 10:35:9.674	WT901BLE68(96416FE28A17)	0.608	-4.436	-1.145	6.714	-491.943	833.801	74.28	-32.78	-50.95	61.642	-34.104	-21.756	0.80820	-0.55212	0.19070	0.07404	24.8	13111	30
2025-1-4 10:35:9.764	WT901BLE68(96416FE28A17)	1.085	-1.185	-0.136	184.204	57.373	165.405	113.65	-84.83	-75.78	61.642	-34.104	-21.756	-0.67062	-0.28055	0.61374	-0.30786	24.8	13111	30
2025-1-4 10:35:9.884	WT901BLE68(96416FE28A17)	0.320	-0.148	1.020	24.048	154.053	-23.193	0.67	-80.50	50.44	61.642	-34.104	-21.756	-0.67062	-0.28055	0.61374	-0.30786	24.8	13111	30
2025-1-4 10:35:9.975	WT901BLE68(96416FE28A17)	-0.602	-0.337	2.060	-139.832	236.694	-231.506	3.85	-66.41	42.33	32.536	-15.778	-58.212	-0.67062	-0.28055	0.61374	-0.30786	24.8	13111	30
2025-1-4 10:35:10.96	WT901BLE68(96416FE28A17)	-0.910	-0.021	0.068	137.329	135.925	-317.627	32.31	-40.37	13.63	32.536	-15.778	-58.212	-0.67062	-0.28055	0.61374	-0.30786	24.8	13111	30
2025-1-4 10:35:10.163	WT901BLE68(96416FE28A17)	-1.504	-0.326	0.075	75.867	22.278	-442.932	55.87	-8.55	-11.85	32.536	-15.778	-58.212	-0.84186	-0.46262	0.00079	0.27780	24.8	13111	30
2025-1-4 10:35:10.274	WT901BLE68(96416FE28A17)	-0.877	-0.667	2.674	-42.786	-4.822	-437.622	41.81	32.12	-47.10	32.536	-15.778	-58.212	-0.84186	-0.46262	0.00079	0.27780	24.8	13111	30
2025-1-4 10:35:10.363	WT901BLE68(96416FE28A17)	-0.256	-0.030	0.905	87.891	-139.771	-253.418	18.25	49.31	-94.55	27.832	-13.524	-56.546	-0.84186	-0.46262	0.00079	0.27780	24.8	13111	30
2025-1-4 10:35:10.484	WT901BLE68(96416FE28A17)	-0.326	-0.056	0.879	-60.181	-190.063	-250.610	-4.97	32.02	-130.55	27.832	-13.524	-56.546	-0.84186	-0.46262	0.00079	0.27780	24.8	13111	30
2025-1-4 10:35:10.574	WT901BLE68(96416FE28A17)	-0.271	-0.178	0.921	-27.588	14.282	-239.075	-21.35	20.45	-158.82	27.832	-13.524	-56.546	-0.06662	-0.16013	-0.23157	0.95718	24.8	13111	30
2025-1-4 10:35:10.727	WT901BLE68(96416FE28A17)	-0.688	-0.166	0.440	48.523	247.620	-243.347	-28.54	21.88	173.63	27.832	-13.524	-56.546	-0.06662	-0.16013	-0.23157	0.95718	24.8	13111	30
2025-1-4 10:35:10.763	WT901BLE68(96416FE28A17)	-0.689	-0.016	0.226	141.479	363.159	-206.421	-38.20	37.23	132.36	63.406	-42.434	-38.906	-0.06662	-0.16013	-0.23157	0.95718	24.8	13111	30
2025-1-4 10:35:10.873	WT901BLE68(96416FE28A17)	-0.216	-0.585	-0.371	195.618	415.894	-246.521	-67.86	47.53	70.78	63.406	-42.434	-38.906	-0.06662	-0.16013	-0.23157	0.95718	24.8	13111	30
2025-1-4 10:35:10.964	WT901BLE68(96416FE28A17)	-0.261	-1.900	-0.607	168.640	45.044	-290.710	-80.78	26.34	26.19	63.406	-42.434	-38.906	0.75906	-0.59409	-0.10880	0.24283	24.8	13111	30
2025-1-4 10:35:11.84	WT901BLE68(96416FE28A17)	-0.884	-2.902	-1.198	-127.075	-109.985	-301.941	-76.62	-6.36	31.18	63.406	-42.434	-38.906	0.75906	-0.59409	-0.10880	0.24283	24.8	13111	30
2025-1-4 10:35:11.175	WT901BLE68(96416FE28A17)	0.013	-6.818	-0.248	-777.893	-126.038	-196.289	-137.06	-20.93	62.68	70.266	-9.212	13.034	0.75906	-0.59409	-0.10880	0.24283	24.8	13111	30
2025-1-4 10:35:11.294	WT901BLE68(96416FE28A17)	0.569	-5.165	-1.549	-639.160	-1019.348	824.707	99.29	29.47	6.45	70.266	-9.212	13.034	0.75906	-0.59409	-0.10880	0.24283	24.8	13111	30
2025-1-4 10:35:11.385	WT901BLE68(96416FE28A17)	0.756	-1.779	-0.488	-23.193	-265.015	600.891	70.58	-50.83	-25.38	70.266	-9.212	13.034	-0.65283	-0.30951	0.62958	-0.28549	24.8	13111	30
2025-1-4 10:35:11.505	WT901BLE68(96416FE28A17)	1.520	-0.958	0.200	113.708	-15.869	213.989	-85.97	-85.62	138.76	70.266	-9.212	13.034	-0.65283	-0.30951	0.62958	-0.28549	24.8	13111	30
2025-1-4 10:35:11.567	WT901BLE68(96416FE28A17)	-0.648	-0.875	0.492	-58.472	87.158	8.362	-77.23	-70.35	134.73	20.678	-7.546	-54.684	-0.65283	-0.30951	0.62958	-0.28549	24.8	13111	30
2025-1-4 10:35:11.685	WT901BLE68(96416FE28A17)	-1.045	-0.605	0.599	40.649	337.341	-263.367	-10.92	-66.59	62.00	20.678	-7.546	-54.684	-0.65283	-0.30951	0.62958	-0.28549	24.8	13111	30
2025-1-4 10:35:11.774	WT901BLE68(96416FE28A17)	-1.336	0.145	0.308	98.999	327.209	-299.194	21.98	-33.92	33.17	20.678	-7.546	-54.684	-0.92670	-0.30508	0.00964	-0.21896	24.8	13111	30
2025-1-4 10:35:11.894	WT901BLE68(96416FE28A17)	-1.753	0.562	0.729	170.776	204.407	-269.470	41.93	3.63	19.30	20.678	-7.546	-54.684	-0.92670	-0.30508	0.00964	-0.21896	24.8	13111	30
2025-1-4 10:35:11.985	WT901BLE68(96416FE28A17)	-0.783	0.692	0.889	144.043	123.596	-166.870	57.15	35.22	13.75	70.952	-7.644	-38.710	-0.92670	-0.30508	0.00964	-0.21896	24.8	13111	30
2025-1-4 10:35:12.104	WT901BLE68(96416FE28A17)	-0.592	0.368	0.645	35.583	10.315	-13.489	64.46	44.56	16.92	70.952	-7.644	-38.710	-0.92670	-0.30508	0.00964	-0.21896	24.8	13111	30
2025-1-4 10:35:12.165	WT901BLE68(96416FE28A17)	-1.121	0.147	0.463	40.710	7.813	-8.179	65.70	45.19	17.58	70.952	-7.644	-38.710	-0.80255	-0.43439	-0.40045	0.08234	24.8	13111	30
2025-1-4 10:35:12.285	WT901BLE68(96416FE28A17)	-0.886	0.035	0.582	-6.409	-3.601	-3.235	63.63	45.70	17.83	70.952	-7.644	-38.710	-0.80255	-0.43439	-0.40045	0.08234	24.8	13111	30
2025-1-4 10:35:12.375	WT901BLE68(96416FE28A17)	-0.768	0.136	0.364	-9.216	-10.742	22.461	62.15	46.12	15.17	71.344	-9.016	-39.200	-0.80255	-0.43439	-0.40045	0.08234	24.8	13111	30
2025-1-4 10:35:12.494	WT901BLE68(96416FE28A17)	-0.997	0.160	0.380	-33.997	13.733	5.920	59.60	46.70	13.49	71.344	-9.016	-39.200	-0.80255	-0.43439	-0.40045	0.08234	24.8	13111	30
2025-1-4 10:35:12.586	WT901BLE68(96416FE28A17)	-0.871	0.100	0.409	-49.072	-3.540	19.043	56.28	47.73	14.39	71.344	-9.016	-39.200	-0.83554	-0.36301	-0.40317	0.08612	24.8	13111	30
2025-1-4 10:35:12.705	WT901BLE68(96416FE28A17)	-0.980	0.097	0.305	-56.885	-1.099	12.878	51.05	47.53	12.22	71.344	-9.016	-39.200	-0.83554	-0.36301	-0.40317	0.08612	24.8	13111	30
2025-1-4 10:35:12.795	WT901BLE68(96416FE28A17)	-0.853	-0.034	0.448	-50.964	-16.602	7.019	45.04	47.91	9.21	72.520	-3.626	-34.202	-0.83554	-0.36301	-0.40317	0.08612	24.8	13111	30
2025-1-4 10:35:12.915	WT901BLE68(96416FE28A17)	-0.921	0.005	0.374	-18.921	10.132	9.583	42.81	48.49	4.91	72.520	-3.626	-34.202	-0.83554	-0.36301	-0.40317	0.08612	24.8	13111	30
2025-1-4 10:35:12.975	WT901BLE68(96416FE28A17)	-0.950	0.029	0.369	-5.615	10.437	4.333	43.74	50.50	1.89	72.520	-3.626	-34.202	-0.82816	-0.35031	-0.40082	0.17502	24.8	13111	30
2025-1-4 10:35:13.94	WT901BLE68(96416FE28A17)	-1.070	0.042	0.457	6.592	-0.488	2.197	45.48	51.80	-0.52	72.520	-3.626	-34.202	-0.82816	-0.35031	-0.40082	0.17502	24.8	13111	30
2025-1-4 10:35:13.185	WT901BLE68(96416FE28A17)	-0.833	0.020	0.512	27.039	-16.846	10.559	44.31	49.99	3.60	73.206	-5.390	-34.398	-0.82816	-0.35031	-0.40082	0.17502	24.8	13111	30
2025-1-4 10:35:13.305	WT901BLE68(96416FE28A17)	-0.684	0.057	0.398	30.579	-25.085	5.676	45.85	47.40	6.04	73.206	-5.390	-34.398	-0.82816	-0.35031	-0.40082	0.17502	24.8	13111	30
2025-1-4 10:35:13.395	WT901BLE68(96416FE28A17)	-0.991	-0.002	0.282	15.625	7.263	-29.968	47.31	48.75	-1.54	73.206	-5.390	-34.398	-0.81683	-0.36725	-0.37753	0.23511	24.8	13111	30
2025-1-4 10:35:13.514	WT901BLE68(96416FE28A17)	-0.547	-0.567	0.727	-19.287	-145.935	-115.112	37.48	52.36	-18.64	73.206	-5.390	-34.398	-0.81683	-0.36725	-0.37753	0.23511	24.8	13111	30
2025-1-4 10:35:13.575	WT901BLE68(96416FE28A17)	-0.788	-0.931	1.467	72.083	-119.995	-152.466	16.19	40.03	-58.07	44.100	0.000	-51.352	-0.81683	-0.36725	-0.37753	0.23511	24.8	13111	30
2025-1-4 10:35:13.695	WT901BLE68(96416FE28A17)	-0.589	-0.869	1.409	170.166	-144.470	-254.700	11.52	34.40	-91.66	44.100	0.000	-51.352	-0.81683	-0.36725	-0.37753	0.23511	24.8	13111	30
2025-1-4 10:35:13.815	WT901BLE68(96416FE28A17)	-0.333	-0.234	0.848	157.532	-204.651	-248.840	11.61	23.35	-128.49	44.100	0.000	-51.352	-0.20868	-0.12265	0.07849	0.96704	24.8	13111	30
2025-1-4 10:35:13.905	WT901BLE68(96416FE28A17)	-0.012	0.196	0.653	-0.305	-152.344	-225.952	11.39	10.88	-156.98	44.100	0.000	-51.352	-0.20868	-0.12265	0.07849	0.96704	24.8	13111	30
2025-1-4 10:35:13.995	WT901BLE68(96416FE28A17)	-0.236	0.128	0.942	-83.984	6.165	-218.689	1.90	6.23	-179.83	15.386	-50.176	-44.296	-0.20868	-0.12265	0.07849	0.96704	24.8	13111	30
2025-1-4 10:35:14.114	WT901BLE68(96416FE28A17)	-0.661	0.133	0.470	-65.430	40.405	-220.276	-7.61	9.41	158.62	15.386	-50.176	-44.296	-0.20868	-0.12265	0.07849	0.96704	24.8	13111	30
2025-1-4 10:35:14.235	WT901BLE68(96416FE28A17)	-0.857	-0.212	0.070	-23.010	199.036	-231.812	-16.91	13.87	135.09	15.386	-50.176	-44.296	0.48419	-0.30963	-0.06650	0.81558	24.8	13111	30
2025-1-4 10:35:14.325	WT901BLE68(96416FE28A17)	-0.695	-0.442	-0.668	50.354	568.787	-244.019	-33.87	34.87	99.11	15.386	-50.176	-44.296	0.48419	-0.30963	-0.06650	0.81558	24.8	13111	30
2025-1-4 10:35:14.384	WT901BLE68(96416FE28A17)	-0.362	-1.599	-1.122	201.965	156.799	-264.893	-69.43	40.35	32.01	77.322	-9.898	0.490	0.48419	-0.30963	-0.06650	0.81558	24.8	13111	30
2025-1-4 10:35:14.505	WT901BLE68(96416FE28A17)	-1.327	-4.488	-1.978	-9.888	89.111	-441.467	-70.04	9.76	19.91	77.322	-9.898	0.490	0.48419	-0.30963	-0.06650	0.81558	24.8	13111	30
2025-1-4 10:35:14.596	WT901BLE68(96416FE28A17)	0.458	-8.540	-0.207	-907.837	-393.738	-62.988	-130.84	-11.51	47.23	77.322	-9.898	0.490	-0.48502	-0.82169	-0.17804	0.24036	24.8	13111	30
2025-1-4 10:35:14.715	WT901BLE68(96416FE28A17)	0.383	-5.968	-1.479	-605.591	-907.166	821.777	113.49	33.17	-2.81	77.322	-9.898	0.490	-0.48502	-0.82169	-0.17804	0.24036	24.8	13111	30
2025-1-4 10:35:14.805	WT901BLE68(96416FE28A17)	1.564	-2.268	-0.418	-79.468	-116.150	615.723	75.45	-37.57	-37.35	10.878	-23.324	-48.706	-0.48502	-0.82169	-0.17804	0.24036	24.8	13111	30
2025-1-4 10:35:14.925	WT901BLE68(96416FE28A17)	1.000	-0.883	0.479	73.914	59.448	216.858	33.55	-80.83	9.29	10.878	-23.324	-48.706	-0.48502	-0.82169	-0.17804	0.24036	24.8	13111	30
2025-1-4 10:35:14.985	WT901BLE68(96416FE28A17)	-0.592	-0.519	0.779	-21.179	152.466	-97.046	-7.11	-73.94	53.64	10.878	-23.324	-48.706	-0.83267	-0.26770	0.40088	-0.27237	24.8	13111	30
2025-1-4 10:35:15.106	WT901BLE68(96416FE28A17)	-1.245	-0.377	0.508	114.807	208.679	-326.416	28.93	-48.08	19.58	10.878	-23.324	-48.706	-0.83267	-0.26770	0.40088	-0.27237	24.8	13111	30
2025-1-4 10:35:15.195	WT901BLE68(96416FE28A17)	-1.232	0.338	0.358	154.297	279.968	-336.121	50.30	-9.85	7.39	57.918	-23.618	-52.136	-0.83267	-0.26770	0.40088	-0.27237	24.8	13111	30
2025-1-4 10:35:15.316	WT901BLE68(96416FE28A17)	-0.991	0.763	0.840	15.747	187.012	-222.412	56.98	23.14	2.13	57.918	-23.618	-52.136	-0.83267	-0.26770	0.40088	-0.27237	24.8	13111	30
2025-1-4 10:35:15.405	WT901BLE68(96416FE28A17)	-0.740	0.462	0.618	-2.991	71.655	-108.521	60.83	44.16	8.70	57.918	-23.618	-52.136	-0.83267	-0.26770	0.40088	-0.27237	24.8	13111	30
2025-1-4 10:35:15.526	WT901BLE68(96416FE28A17)	-1.501	0.218	0.681	-12.390	10.864	-66.406	58.30	53.21	11.05	57.918	-23.618	-52.136	-0.79819	-0.39587	-0.43121	0.14194	24.8	13111	30
2025-1-4 10:35:15.615	WT901BLE68(96416FE28A17)	-0.654	-0.009	0.595	-58.533	-32.410	-0.549	48.43	54.38	8.55	70.952	-2.058	-35.378	-0.79819	-0.39587	-0.43121	0.14194	24.8	13111	30
2025-1-4 10:35:15.735	WT901BLE68(96416FE28A17)	-0.855	0.066	0.367	-5.676	-66.833	52.612	42.15	48.10	8.19	70.952	-2.058	-35.378	-0.79819	-0.39587	-0.43121	0.14194	24.8	13111	30
2025-1-4 10:35:15.795	WT901BLE68(96416FE28A17)	-0.968	0.039	0.262	41.809	-6.165	-17.151	40.70	44.62	3.93	70.952	-2.058	-35.378	-0.84888	-0.33994	-0.38171	0.13434	24.8	13111	30
2025-1-4 10:35:15.915	WT901BLE68(96416FE28A17)	-0.784	0.140	0.331	3.906	27.832	7.324	45.38	48.14	2.83	70.952	-2.058	-35.378	-0.84888	-0.33994	-0.38171	0.13434	24.8	13111	30
2025-1-4 10:35:16.7	WT901BLE68(96416FE28A17)	-0.955	-0.022	0.570	-7.813	2.747	4.150	46.24	50.48	1.99	70.462	-6.076	-38.612	-0.84888	-0.33994	-0.38171	0.13434	24.8	13111	30
2025-1-4 10:35:16.126	WT901BLE68(96416FE28A17)	-0.945	0.063	0.434	-6.348	3.113	-17.761	46.43	52.97	-4.09	70.462	-6.076	-38.612	-0.84888	-0.33994	-0.38171	0.13434	24.8	13111	30
2025-1-4 10:35:16.215	WT901BLE68(96416FE28A17)	-0.891	0.125	0.424	-11.902	2.197	12.878	45.56	54.63	-7.77	70.462	-6.076	-38.612	-0.84888	-0.33994	-0.38171	0.13434	24.8	13111	30
2025-1-4 10:35:16.337	WT901BLE68(96416FE28A17)	-0.895	0.071	0.422	-10.986	-9.399	17.029	43.84	54.00	-9.07	70.462	-6.076	-38.612	-0.81079	-0.36465	-0.39316	0.23441	24.8	13111	30
2025-1-4 10:35:16.395	WT901BLE68(96416FE28A17)	-0.979	0.047	0.496	-7.263	-0.427	12.329	43.45	54.09	-10.16	71.148	-5.880	-37.730	-0.81079	-0.36465	-0.39316	0.23441	24.8	13111	30
2025-1-4 10:35:16.515	WT901BLE68(96416FE28A17)	-0.818	0.090	0.562	0.610	-22.095	20.996	42.69	52.43	-8.57	71.148	-5.880	-37.730	-0.81079	-0.36465	-0.39316	0.23441	24.8	13111	30
2025-1-4 10:35:16.605	WT901BLE68(96416FE28A17)	-0.801	0.124	0.433	0.122	-14.709	25.879	41.87	48.73	-3.07	71.148	-5.880	-37.730	-0.84842	-0.33414	-0.37457	0.16776	24.8	13111	30
2025-1-4 10:35:16.725	WT901BLE68(96416FE28A17)	-1.086	0.140	0.387	-11.108	9.338	7.629	41.62	48.52	-3.00	71.148	-5.880	-37.730	-0.84842	-0.33414	-0.37457	0.16776	24.8	13111	30
2025-1-4 10:35:16.814	WT901BLE68(96416FE28A17)	-0.807	0.158	0.642	-31.372	-17.578	15.625	38.66	48.84	-1.72	71.148	-5.880	-37.730	-0.84842	-0.33414	-0.37457	0.16776	24.8	13111	30
2025-1-4 10:35:16.935	WT901BLE68(96416FE28A17)	-0.530	-0.067	0.604	0.122	-38.025	20.447	35.62	44.65	2.95	71.050	-8.722	-39.396	-0.84842	-0.33414	-0.37457	0.16776	24.8	13111	30
2025-1-4 10:35:17.25	WT901BLE68(96416FE28A17)	-0.267	-0.367	0.460	56.824	-48.035	-69.397	35.89	43.96	-3.47	71.050	-8.722	-39.396	-0.84842	-0.33414	-0.37457	0.16776	24.8	13111	30
2025-1-4 10:35:17.145	WT901BLE68(96416FE28A17)	-1.054	-0.582	0.524	59.265	-151.428	-275.330	24.38	47.89	-35.62	71.050	-8.722	-39.396	-0.81979	-0.30136	-0.31595	0.37039	24.8	13111	30
2025-1-4 10:35:17.205	WT901BLE68(96416FE28A17)	-0.895	-1.092	1.407	61.951	13.123	-260.925	-5.70	45.21	-86.53	37.240	-2.450	-53.802	-0.81979	-0.30136	-0.31595	0.37039	24.8	13111	30
2025-1-4 10:35:17.325	WT901BLE68(96416FE28A17)	-0.399	-0.631	1.399	118.835	-100.403	-215.332	-15.29	33.77	-119.79	37.240	-2.450	-53.802	-0.81979	-0.30136	-0.31595	0.37039	24.8	13111	30
2025-1-4 10:35:17.414	WT901BLE68(96416FE28A17)	-0.050	0.010	0.729	107.483	-89.478	-143.127	-11.61	20.30	-140.18	37.240	-2.450	-53.802	-0.26633	-0.03333	-0.07596	0.96024	24.8	13111	30
2025-1-4 10:35:17.565	WT901BLE68(96416FE28A17)	0.316	-0.155	1.350	27.405	-179.626	-100.098	-7.29	5.09	-149.83	37.240	-2.450	-53.802	-0.26633	-0.03333	-0.07596	0.96024	24.8	13111	30
2025-1-4 10:35:17.625	WT901BLE68(96416FE28A17)	0.204	-0.064	0.938	7.935	-69.092	-141.846	-4.98	-6.29	-162.49	37.240	-2.450	-53.802	-0.26633	-0.03333	-0.07596	0.96024	24.8	13111	30
2025-1-4 10:35:17.745	WT901BLE68(96416FE28A17)	-0.167	-0.128	0.090	-20.203	115.845	-242.371	-3.57	-9.03	176.92	6.174	-43.316	-43.218	-0.26633	-0.03333	-0.07596	0.96024	24.8	13111	30
2025-1-4 10:35:17.804	WT901BLE68(96416FE28A17)	-0.189	-0.341	-0.438	84.106	420.105	-301.392	-5.63	21.76	145.29	6.174	-43.316	-43.218	-0.26633	-0.03333	-0.07596	0.96024	24.8	13111	30
2025-1-4 10:35:17.924	WT901BLE68(96416FE28A17)	-0.230	-1.412	-1.895	282.715	652.405	-319.031	-45.27	60.13	73.88	6.174	-43.316	-43.218	0.54404	-0.57074	0.19687	0.58258	24.8	13111	30
2025-1-4 10:35:18.15	WT901BLE68(96416FE28A17)	-1.276	-5.193	-1.638	188.354	-492.065	-456.360	-63.57	30.93	13.97	64.778	8.036	3.038	0.54404	-0.57074	0.19687	0.58258	24.8	13111	30
2025-1-4 10:35:18.136	WT901BLE68(96416FE28A17)	0.844	-8.760	-0.777	-816.284	-811.584	-110.596	-104.29	-16.02	46.10	64.778	8.036	3.038	0.54404	-0.57074	0.19687	0.58258	24.8	13111	30
2025-1-4 10:35:18.225	WT901BLE68(96416FE28A17)	0.829	-9.242	-2.468	-749.695	-1164.246	837.952	130.48	50.57	25.80	64.778	8.036	3.038	0.54404	-0.57074	0.19687	0.58258	24.8	13111	30
2025-1-4 10:35:18.346	WT901BLE68(96416FE28A17)	1.377	-2.664	-0.717	-229.065	-107.117	539.246	64.88	-8.11	-13.26	64.778	8.036	3.038	-0.84055	-0.52457	0.12106	0.05945	24.8	13111	30
2025-1-4 10:35:18.437	WT901BLE68(96416FE28A17)	0.923	-0.504	0.170	-19.104	17.029	153.687	43.99	-49.51	2.69	64.778	8.036	3.038	-0.84055	-0.52457	0.12106	0.05945	24.8	13111	30
2025-1-4 10:35:18.554	WT901BLE68(96416FE28A17)	0.550	0.439	1.218	-50.781	59.387	-21.973	34.87	-53.22	12.77	26.754	-22.932	-57.820	-0.84055	-0.52457	0.12106	0.05945	24.8	13111	30
2025-1-4 10:35:18.616	WT901BLE68(96416FE28A17)	-0.101	0.120	1.905	72.083	87.769	-210.327	33.79	-46.47	11.90	26.754	-22.932	-57.820	-0.84055	-0.52457	0.12106	0.05945	24.8	13111	30
2025-1-4 10:35:18.735	WT901BLE68(96416FE28A17)	-0.739	0.076	0.649	136.719	37.354	-241.394	54.45	-25.10	2.12	26.754	-22.932	-57.820	-0.86206	-0.46927	0.16248	-0.10056	24.8	13111	30
2025-1-4 10:35:18.825	WT901BLE68(96416FE28A17)	-0.981	0.307	-0.008	176.514	341.431	-212.158	69.13	5.10	18.72	71.344	-36.162	-36.260	-0.86206	-0.46927	0.16248	-0.10056	24.8	13111	30
2025-1-4 10:35:18.946	WT901BLE68(96416FE28A17)	-1.282	0.337	-0.178	69.824	218.872	-190.430	86.09	29.74	39.65	71.344	-36.162	-36.260	-0.86206	-0.46927	0.16248	-0.10056	24.8	13111	30
2025-1-4 10:35:19.35	WT901BLE68(96416FE28A17)	-1.428	0.355	-0.125	29.114	33.875	-139.587	98.35	47.76	49.06	71.344	-36.162	-36.260	-0.86206	-0.46927	0.16248	-0.10056	24.8	13111	30
2025-1-4 10:35:19.156	WT901BLE68(96416FE28A17)	-1.290	0.377	-0.188	-18.982	32.471	-66.406	105.11	58.29	57.02	71.344	-36.162	-36.260	-0.65027	-0.46603	-0.59344	0.08762	24.8	13111	30
2025-1-4 10:35:19.216	WT901BLE68(96416FE28A17)	-0.977	0.312	-0.175	-21.912	-41.199	26.733	107.73	60.73	60.80	71.344	-36.162	-36.260	-0.65027	-0.46603	-0.59344	0.08762	24.8	13111	30
2025-1-4 10:35:19.336	WT901BLE68(96416FE28A17)	-0.716	0.090	-0.238	0.610	-60.425	57.312	94.94	57.90	45.84	81.536	-10.682	-16.170	-0.65027	-0.46603	-0.59344	0.08762	24.8	13111	30
2025-1-4 10:35:19.427	WT901BLE68(96416FE28A17)	-1.083	0.155	-0.135	1.587	-49.500	43.091	88.82	53.89	35.56	81.536	-10.682	-16.170	-0.65027	-0.46603	-0.59344	0.08762	24.8	13111	30
2025-1-4 10:35:19.545	WT901BLE68(96416FE28A17)	-0.981	0.228	-0.064	6.531	12.024	3.662	89.63	52.87	33.05	81.536	-10.682	-16.170	-0.69473	-0.51730	-0.48431	0.12268	24.8	13111	30
2025-1-4 10:35:19.635	WT901BLE68(96416FE28A17)	-0.778	0.249	0.083	-28.015	2.625	0.549	91.64	54.27	34.45	81.536	-10.682	-16.170	-0.69473	-0.51730	-0.48431	0.12268	24.8	13111	30
2025-1-4 10:35:19.756	WT901BLE68(96416FE28A17)	-1.213	0.195	0.049	-28.442	-17.761	0.732	87.13	55.28	31.20	81.536	-17.934	-22.344	-0.69473	-0.51730	-0.48431	0.12268	24.8	13111	30
2025-1-4 10:35:19.845	WT901BLE68(96416FE28A17)	-0.836	0.170	-0.028	-7.080	18.860	-13.794	86.95	57.45	30.38	81.536	-17.934	-22.344	-0.69473	-0.51730	-0.48431	0.12268	24.8	13111	30
2025-1-4 10:35:19.965	WT901BLE68(96416FE28A17)	-1.089	0.211	0.126	-29.175	-12.939	3.784	84.87	58.72	28.42	81.536	-17.934	-22.344	-0.70581	-0.47995	-0.49451	0.16373	24.8	13111	30
2025-1-4 10:35:20.27	WT901BLE68(96416FE28A17)	-0.894	0.155	0.016	-5.371	6.897	-11.658	82.79	60.22	25.69	81.536	-17.934	-22.344	-0.70581	-0.47995	-0.49451	0.16373	24.8	13111	30
2025-1-4 10:35:20.144	WT901BLE68(96416FE28A17)	-1.025	0.183	0.046	-13.123	-9.277	1.343	81.55	61.50	23.48	81.046	-14.896	-22.344	-0.70581	-0.47995	-0.49451	0.16373	24.8	13111	30
2025-1-4 10:35:20.233	WT901BLE68(96416FE28A17)	-0.983	0.181	0.054	-3.662	3.357	-8.545	81.17	63.08	21.75	81.046	-14.896	-22.344	-0.70581	-0.47995	-0.49451	0.16373	24.8	13111	30
2025-1-4 10:35:20.355	WT901BLE68(96416FE28A17)	-0.926	0.189	0.042	-3.784	-5.432	2.075	80.13	64.20	19.40	81.046	-14.896	-22.344	-0.69592	-0.46948	-0.49173	0.23099	24.8	13111	30
2025-1-4 10:35:20.445	WT901BLE68(96416FE28A17)	-0.944	0.187	-0.003	-1.404	5.249	-3.601	80.32	65.06	18.30	81.046	-14.896	-22.344	-0.69592	-0.46948	-0.49173	0.23099	24.8	13111	30
2025-1-4 10:35:20.565	WT901BLE68(96416FE28A17)	-0.738	0.181	-0.021	-7.507	11.292	-7.751	81.69	66.56	19.12	80.850	-13.426	-21.854	-0.69592	-0.46948	-0.49173	0.23099	24.8	13111	30
2025-1-4 10:35:20.627	WT901BLE68(96416FE28A17)	-0.965	0.159	0.052	-9.155	6.226	7.507	84.32	67.50	21.77	80.850	-13.426	-21.854	-0.69592	-0.46948	-0.49173	0.23099	24.8	13111	30
2025-1-4 10:35:20.745	WT901BLE68(96416FE28A17)	-1.547	-0.362	0.438	92.468	-101.563	-10.376	76.81	67.35	8.27	80.850	-13.426	-21.854	-0.67239	-0.48904	-0.46078	0.31027	24.8	13111	30
2025-1-4 10:35:20.837	WT901BLE68(96416FE28A17)	-1.473	-0.529	0.755	229.675	-191.711	-75.134	65.21	70.96	-29.14	80.850	-13.426	-21.854	-0.67239	-0.48904	-0.46078	0.31027	24.8	13111	30
2025-1-4 10:35:20.955	WT901BLE68(96416FE28A17)	-1.225	-0.447	1.022	154.480	-386.108	-138.245	19.66	53.83	-104.48	60.172	-19.306	-49.000	-0.67239	-0.48904	-0.46078	0.31027	24.8	13111	30
2025-1-4 10:35:21.47	WT901BLE68(96416FE28A17)	-0.313	-0.178	1.217	85.632	-321.594	-148.010	10.77	25.65	-136.43	60.172	-19.306	-49.000	-0.67239	-0.48904	-0.46078	0.31027	24.8	13111	30
2025-1-4 10:35:21.166	WT901BLE68(96416FE28A17)	-0.028	0.326	0.170	-0.244	-142.578	-180.542	8.31	7.36	-158.83	60.172	-19.306	-49.000	-0.13834	-0.05316	0.05423	0.98743	24.8	13111	30
2025-1-4 10:35:21.227	WT901BLE68(96416FE28A17)	0.133	0.309	0.640	-131.165	-83.984	-91.492	0.69	1.99	-170.89	60.172	-19.306	-49.000	-0.13834	-0.05316	0.05423	0.98743	24.8	13111	30
2025-1-4 10:35:21.376	WT901BLE68(96416FE28A17)	0.397	-0.208	1.164	-162.476	-41.748	-68.970	-14.67	-7.05	-176.24	6.076	-35.476	-47.040	-0.13834	-0.05316	0.05423	0.98743	24.8	13111	30
2025-1-4 10:35:21.437	WT901BLE68(96416FE28A17)	0.054	-0.076	0.700	-118.958	13.794	-114.197	-25.63	-12.50	176.28	6.076	-35.476	-47.040	-0.13834	-0.05316	0.05423	0.98743	24.8	13111	30
2025-1-4 10:35:21.556	WT901BLE68(96416FE28A17)	-0.241	-0.123	0.371	-66.406	149.719	-173.584	-29.65	-13.37	158.42	6.076	-35.476	-47.040	0.23727	0.04810	-0.27084	0.93164	24.8	13111	30
2025-1-4 10:35:21.646	WT901BLE68(96416FE28A17)	-0.622	-0.385	0.140	-34.790	351.685	-202.209	-29.23	-2.55	130.85	6.076	-35.476	-47.040	0.23727	0.04810	-0.27084	0.93164	24.8	13111	30
2025-1-4 10:35:21.764	WT901BLE68(96416FE28A17)	0.601	-1.364	-1.467	222.778	949.768	-256.897	-38.86	33.72	79.49	65.366	-27.538	-38.710	0.23727	0.04810	-0.27084	0.93164	24.8	13111	30
2025-1-4 10:35:21.862	WT901BLE68(96416FE28A17)	-2.382	-4.766	-1.659	158.081	-55.725	-445.557	-73.27	33.11	-4.29	65.366	-27.538	-38.710	0.23727	0.04810	-0.27084	0.93164	24.8	13111	30
2025-1-4 10:35:21.975	WT901BLE68(96416FE28A17)	-1.132	-8.626	0.388	-832.520	-558.167	-257.813	-110.56	-11.97	23.76	65.366	-27.538	-38.710	0.28955	-0.89075	-0.34518	0.05896	24.8	13111	30
2025-1-4 10:35:22.35	WT901BLE68(96416FE28A17)	0.580	-8.112	-1.616	-1079.651	-1034.973	812.256	124.36	33.71	8.55	65.366	-27.538	-38.710	0.28955	-0.89075	-0.34518	0.05896	24.8	13111	30
2025-1-4 10:35:22.157	WT901BLE68(96416FE28A17)	0.886	-3.315	-0.632	-61.951	-360.046	745.056	57.15	-50.82	-29.27	24.402	-33.908	-43.610	0.28955	-0.89075	-0.34518	0.05896	24.8	13111	30
2025-1-4 10:35:22.246	WT901BLE68(96416FE28A17)	1.240	-0.929	0.035	118.835	38.757	155.701	-41.58	-74.22	82.97	24.402	-33.908	-43.610	0.28955	-0.89075	-0.34518	0.05896	24.8	13111	30
2025-1-4 10:35:22.365	WT901BLE68(96416FE28A17)	0.746	-0.644	0.898	-38.208	81.055	44.922	-44.23	-61.78	92.20	24.402	-33.908	-43.610	-0.69193	-0.10516	0.56146	-0.44144	24.8	13111	30
2025-1-4 10:35:22.462	WT901BLE68(96416FE28A17)	-1.139	-0.756	0.752	45.166	236.206	-277.588	-23.32	-58.10	66.19	24.402	-33.908	-43.610	-0.69193	-0.10516	0.56146	-0.44144	24.8	13111	30
2025-1-4 10:35:22.575	WT901BLE68(96416FE28A17)	-1.172	-0.465	0.182	346.130	503.113	-397.217	27.93	-20.55	24.21	47.530	-21.364	-55.076	-0.69193	-0.10516	0.56146	-0.44144	24.8	13111	30
2025-1-4 10:35:22.634	WT901BLE68(96416FE28A17)	-0.875	1.196	-0.121	237.000	5.798	-118.225	66.04	16.80	28.32	47.530	-21.364	-55.076	-0.69193	-0.10516	0.56146	-0.44144	24.8	13111	30
2025-1-4 10:35:22.786	WT901BLE68(96416FE28A17)	-0.819	0.709	0.166	38.086	-50.293	-113.098	79.73	30.96	25.67	47.530	-21.364	-55.076	-0.75122	-0.54959	-0.36276	0.04382	24.8	13111	30
2025-1-4 10:35:22.847	WT901BLE68(96416FE28A17)	-1.041	0.407	0.261	57.556	45.044	-97.229	86.67	44.04	27.95	47.530	-21.364	-55.076	-0.75122	-0.54959	-0.36276	0.04382	24.8	13111	30
2025-1-4 10:35:22.964	WT901BLE68(96416FE28A17)	-1.507	0.687	0.323	-19.409	-51.147	-35.156	86.63	50.73	27.25	80.654	-22.638	-25.872	-0.75122	-0.54959	-0.36276	0.04382	24.8	13111	30
2025-1-4 10:35:23.63	WT901BLE68(96416FE28A17)	-0.531	0.390	0.150	-2.502	-9.338	-30.518	79.74	53.55	22.34	80.654	-22.638	-25.872	-0.75122	-0.54959	-0.36276	0.04382	24.8	13111	30
2025-1-4 10:35:23.175	WT901BLE68(96416FE28A17)	-0.983	0.250	0.039	-24.231	-7.019	20.752	74.53	53.96	18.01	80.654	-22.638	-25.872	-0.74719	-0.47302	-0.44019	0.15515	24.8	13111	30
2025-1-4 10:35:23.265	WT901BLE68(96416FE28A17)	-0.988	0.292	0.105	-36.316	18.433	-4.944	70.80	53.05	18.07	80.654	-22.638	-25.872	-0.74719	-0.47302	-0.44019	0.15515	24.8	13111	30
2025-1-4 10:35:23.385	WT901BLE68(96416FE28A17)	-0.919	0.195	0.094	-39.673	10.742	11.597	72.25	56.76	21.61	79.380	-15.484	-27.930	-0.74719	-0.47302	-0.44019	0.15515	24.8	13111	30
2025-1-4 10:35:23.448	WT901BLE68(96416FE28A17)	-1.038	0.219	0.257	-35.095	-1.404	-10.925	69.11	57.55	21.63	79.380	-15.484	-27.930	-0.74719	-0.47302	-0.44019	0.15515	24.8	13111	30
2025-1-4 10:35:23.568	WT901BLE68(96416FE28A17)	-0.941	0.237	0.219	-14.709	-12.878	12.817	67.49	58.82	20.81	79.380	-15.484	-27.930	-0.76453	-0.40125	-0.48480	0.13919	24.8	13111	30
2025-1-4 10:35:23.653	WT901BLE68(96416FE28A17)	-0.923	0.180	0.184	-2.625	-4.944	8.850	65.87	58.43	18.41	79.380	-15.484	-27.930	-0.76453	-0.40125	-0.48480	0.13919	24.8	13111	30
2025-1-4 10:35:23.776	WT901BLE68(96416FE28A17)	-0.982	0.196	0.171	0.061	-4.761	-1.160	65.11	58.79	16.02	79.968	-14.210	-26.166	-0.76453	-0.40125	-0.48480	0.13919	24.8	13111	30
2025-1-4 10:35:23.867	WT901BLE68(96416FE28A17)	-0.987	0.210	0.150	-2.014	-3.662	-6.165	64.26	60.16	13.54	79.968	-14.210	-26.166	-0.76453	-0.40125	-0.48480	0.13919	24.8	13111	30
2025-1-4 10:35:23.984	WT901BLE68(96416FE28A17)	-0.806	0.199	0.218	3.601	-3.601	-2.380	63.60	61.19	11.35	79.968	-14.210	-26.166	-0.75223	-0.41022	-0.47504	0.20026	24.8	13111	30
2025-1-4 10:35:24.45	WT901BLE68(96416FE28A17)	-0.598	0.057	0.170	18.616	2.686	-19.043	64.09	62.90	8.87	79.968	-14.210	-26.166	-0.75223	-0.41022	-0.47504	0.20026	24.8	13111	30
2025-1-4 10:35:24.196	WT901BLE68(96416FE28A17)	-1.410	-0.346	0.390	55.359	-109.680	-97.717	53.06	66.08	-10.71	76.930	-10.192	-30.870	-0.75223	-0.41022	-0.47504	0.20026	24.8	13111	30
2025-1-4 10:35:24.254	WT901BLE68(96416FE28A17)	-1.185	-0.887	1.255	147.522	-272.522	-149.658	18.02	60.34	-66.44	76.930	-10.192	-30.870	-0.75223	-0.41022	-0.47504	0.20026	24.8	13111	30
2025-1-4 10:35:24.375	WT901BLE68(96416FE28A17)	-0.607	-0.534	1.385	143.860	-253.296	-198.364	7.24	34.44	-106.39	76.930	-10.192	-30.870	-0.47702	-0.20517	-0.06113	0.85236	24.8	13111	30
2025-1-4 10:35:24.464	WT901BLE68(96416FE28A17)	-0.213	-0.148	0.588	44.739	-185.242	-184.692	4.65	13.68	-133.47	76.930	-10.192	-30.870	-0.47702	-0.20517	-0.06113	0.85236	24.8	13111	30
2025-1-4 10:35:24.616	WT901BLE68(96416FE28A17)	0.199	-0.007	0.579	-56.763	-112.732	-183.350	-0.48	0.99	-154.00	5.880	-31.164	-47.922	-0.47702	-0.20517	-0.06113	0.85236	24.8	13111	30
2025-1-4 10:35:24.676	WT901BLE68(96416FE28A17)	0.253	0.268	0.932	-111.816	-87.280	-116.760	-8.85	-7.21	-167.47	5.880	-31.164	-47.922	-0.47702	-0.20517	-0.06113	0.85236	24.8	13111	30
2025-1-4 10:35:24.796	WT901BLE68(96416FE28A17)	0.401	0.043	1.142	-87.463	-4.883	-109.436	-16.34	-13.09	-179.69	5.880	-31.164	-47.922	0.05051	0.11682	-0.16064	0.97873	24.8	13111	30
2025-1-4 10:35:24.858	WT901BLE68(96416FE28A17)	0.031	-0.169	0.848	-83.862	5.432	-149.170	-21.37	-16.75	167.89	5.880	-31.164	-47.922	0.05051	0.11682	-0.16064	0.97873	24.8	13111	30
2025-1-4 10:35:24.974	WT901BLE68(96416FE28A17)	-0.242	-0.149	-0.122	44.434	196.655	-264.526	-13.92	-15.65	143.30	19.502	-42.728	-50.372	0.05051	0.11682	-0.16064	0.97873	24.8	13111	30
2025-1-4 10:35:25.65	WT901BLE68(96416FE28A17)	0.318	-0.653	-0.728	58.899	636.169	-243.591	-7.61	14.02	113.57	19.502	-42.728	-50.372	0.05051	0.11682	-0.16064	0.97873	24.8	13111	30
2025-1-4 10:35:25.185	WT901BLE68(96416FE28A17)	-1.187	-4.294	-1.973	439.819	472.778	-539.124	-66.14	55.34	10.15	19.502	-42.728	-50.372	0.81772	-0.52576	0.21243	0.09836	24.8	13111	30
2025-1-4 10:35:25.275	WT901BLE68(96416FE28A17)	-0.361	-6.914	-0.417	-611.938	-545.654	-356.018	-80.49	-0.67	13.28	19.502	-42.728	-50.372	0.81772	-0.52576	0.21243	0.09836	24.8	13111	30
2025-1-4 10:35:25.395	WT901BLE68(96416FE28A17)	1.272	-8.030	-1.692	-1031.433	-1119.080	-219.299	-178.53	-3.02	57.64	70.756	-24.500	-1.078	0.81772	-0.52576	0.21243	0.09836	24.8	13111	30
2025-1-4 10:35:25.454	WT901BLE68(96416FE28A17)	0.897	-3.577	-0.780	-210.754	-475.403	823.242	69.98	3.94	-36.66	70.756	-24.500	-1.078	0.81772	-0.52576	0.21243	0.09836	24.8	13111	30
2025-1-4 10:35:25.575	WT901BLE68(96416FE28A17)	1.358	-1.215	-0.390	-28.992	-50.537	373.962	41.86	-59.79	-15.15	70.756	-24.500	-1.078	-0.81244	-0.18988	0.52737	-0.16019	24.8	13111	30
2025-1-4 10:35:25.664	WT901BLE68(96416FE28A17)	0.942	-0.312	0.920	-56.885	92.285	45.532	1.11	-65.84	29.16	70.756	-24.500	-1.078	-0.81244	-0.18988	0.52737	-0.16019	24.8	13111	30
2025-1-4 10:35:25.785	WT901BLE68(96416FE28A17)	-0.443	-0.452	1.144	27.466	111.023	-165.955	0.09	-61.01	27.54	21.168	-6.468	-54.390	-0.81244	-0.18988	0.52737	-0.16019	24.8	13111	30
2025-1-4 10:35:25.877	WT901BLE68(96416FE28A17)	-0.744	-0.418	0.187	234.741	443.970	-370.605	32.57	-26.76	4.93	21.168	-6.468	-54.390	-0.81244	-0.18988	0.52737	-0.16019	24.8	13111	30
2025-1-4 10:35:25.997	WT901BLE68(96416FE28A17)	-1.594	0.445	-0.519	347.046	408.081	-162.964	68.86	21.19	17.94	21.168	-6.468	-54.390	-0.65979	-0.61731	-0.42825	-0.00812	24.8	13111	30
2025-1-4 10:35:26.86	WT901BLE68(96416FE28A17)	-1.522	0.481	-0.700	249.817	150.085	-166.443	121.66	37.51	57.29	21.168	-6.468	-54.390	-0.65979	-0.61731	-0.42825	-0.00812	24.8	13111	30
2025-1-4 10:35:26.206	WT901BLE68(96416FE28A17)	-0.787	0.556	-0.954	39.795	-18.372	-34.180	148.08	42.32	70.83	81.732	-17.934	-2.352	-0.65979	-0.61731	-0.42825	-0.00812	24.8	13111	30
2025-1-4 10:35:26.265	WT901BLE68(96416FE28A17)	-1.150	0.473	-0.317	-80.811	-103.027	18.860	137.92	49.88	63.13	81.732	-17.934	-2.352	-0.65979	-0.61731	-0.42825	-0.00812	24.8	13111	30
2025-1-4 10:35:26.385	WT901BLE68(96416FE28A17)	-0.832	0.107	-0.229	-100.525	-90.759	37.354	115.03	54.18	47.21	81.732	-17.934	-2.352	-0.62131	-0.57343	-0.51178	0.15210	24.8	13111	30
2025-1-4 10:35:26.475	WT901BLE68(96416FE28A17)	-0.938	0.151	-0.048	-76.111	-97.351	44.556	98.51	53.75	35.23	81.732	-17.934	-2.352	-0.62131	-0.57343	-0.51178	0.15210	24.8	13111	30
2025-1-4 10:35:26.594	WT901BLE68(96416FE28A17)	-0.917	0.208	-0.076	-32.593	-4.822	3.906	89.04	52.90	27.55	81.634	-20.090	-22.834	-0.62131	-0.57343	-0.51178	0.15210	24.8	13111	30
2025-1-4 10:35:26.685	WT901BLE68(96416FE28A17)	-0.892	0.244	0.115	-15.747	1.648	12.451	87.95	54.04	26.82	81.634	-20.090	-22.834	-0.62131	-0.57343	-0.51178	0.15210	24.8	13111	30
2025-1-4 10:35:26.806	WT901BLE68(96416FE28A17)	-1.090	0.323	0.078	-8.911	-15.930	4.150	86.00	54.37	23.75	81.634	-20.090	-22.834	-0.70386	-0.52011	-0.44980	0.17783	24.8	13111	30
2025-1-4 10:35:26.868	WT901BLE68(96416FE28A17)	-0.820	0.348	0.035	-1.770	-3.479	-1.282	83.55	55.32	20.97	81.634	-20.090	-22.834	-0.70386	-0.52011	-0.44980	0.17783	24.8	13111	30
2025-1-4 10:35:26.986	WT901BLE68(96416FE28A17)	-1.006	0.290	0.176	-4.944	-2.502	3.723	83.09	55.61	20.46	81.144	-20.482	-24.402	-0.70386	-0.52011	-0.44980	0.17783	24.8	13111	30
2025-1-4 10:35:27.75	WT901BLE68(96416FE28A17)	-0.964	0.397	0.060	0.549	2.930	-9.827	82.64	56.91	19.58	81.144	-20.482	-24.402	-0.70386	-0.52011	-0.44980	0.17783	24.8	13111	30
2025-1-4 10:35:27.198	WT901BLE68(96416FE28A17)	-0.818	0.387	0.074	-18.372	-23.499	22.888	79.55	56.82	17.39	81.144	-20.482	-24.402	-0.72159	-0.49747	-0.44031	0.19446	24.8	13111	30
2025-1-4 10:35:27.285	WT901BLE68(96416FE28A17)	-0.995	0.308	0.116	-12.451	8.301	4.089	77.59	55.79	16.83	81.144	-20.482	-24.402	-0.72159	-0.49747	-0.44031	0.19446	24.8	13111	30
2025-1-4 10:35:27.405	WT901BLE68(96416FE28A17)	-0.850	0.306	0.135	-12.146	-3.601	6.409	76.83	56.63	17.34	80.850	-21.070	-25.382	-0.72159	-0.49747	-0.44031	0.19446	24.8	13111	30
2025-1-4 10:35:27.494	WT901BLE68(96416FE28A17)	-0.902	0.218	0.191	11.963	10.803	-8.057	76.46	57.24	16.78	80.850	-21.070	-25.382	-0.72159	-0.49747	-0.44031	0.19446	24.8	13111	30
2025-1-4 10:35:27.616	WT901BLE68(96416FE28A17)	-0.841	0.207	0.159	39.612	1.587	-22.522	78.24	59.83	14.61	80.850	-21.070	-25.382	-0.69009	-0.50366	-0.45163	0.25696	24.8	13111	30
2025-1-4 10:35:27.676	WT901BLE68(96416FE28A17)	-1.047	0.194	0.078	54.016	-4.517	-28.503	80.50	63.11	11.05	80.850	-21.070	-25.382	-0.69009	-0.50366	-0.45163	0.25696	24.8	13111	30
2025-1-4 10:35:27.795	WT901BLE68(96416FE28A17)	-1.515	-0.110	0.216	123.047	-96.985	-28.320	77.62	65.59	-3.17	78.792	-20.188	-30.282	-0.69009	-0.50366	-0.45163	0.25696	24.8	13111	30
2025-1-4 10:35:27.887	WT901BLE68(96416FE28A17)	-1.138	-0.224	0.815	193.909	-345.886	-100.647	48.22	62.53	-57.08	78.792	-20.188	-30.282	-0.69009	-0.50366	-0.45163	0.25696	24.8	13111	30
2025-1-4 10:35:28.6	WT901BLE68(96416FE28A17)	-0.720	-0.025	1.271	85.693	-341.248	-149.780	20.62	41.37	-110.65	78.792	-20.188	-30.282	-0.40302	-0.27783	-0.00421	0.87192	24.8	13111	30
2025-1-4 10:35:28.95	WT901BLE68(96416FE28A17)	-0.226	0.084	1.114	-19.653	-277.222	-160.645	9.28	17.64	-138.87	78.792	-20.188	-30.282	-0.40302	-0.27783	-0.00421	0.87192	24.8	13111	30
2025-1-4 10:35:28.216	WT901BLE68(96416FE28A17)	0.125	0.220	0.361	-50.903	-113.525	-126.160	2.80	2.45	-155.85	9.506	-33.320	-49.784	-0.40302	-0.27783	-0.00421	0.87192	24.8	13111	30
2025-1-4 10:35:28.276	WT901BLE68(96416FE28A17)	0.219	0.116	0.670	-110.596	-103.149	-55.237	-5.15	-5.57	-163.16	9.506	-33.320	-49.784	-0.40302	-0.27783	-0.00421	0.87192	24.8	13111	30
2025-1-4 10:35:28.394	WT901BLE68(96416FE28A17)	0.442	-0.173	0.985	-112.610	1.953	-98.816	-14.84	-12.72	-171.05	9.506	-33.320	-49.784	0.00476	0.12735	-0.17801	0.97568	24.8	13111	30
2025-1-4 10:35:28.486	WT901BLE68(96416FE28A17)	0.152	-0.119	0.689	-137.756	42.786	-106.812	-23.93	-14.82	178.42	9.506	-33.320	-49.784	0.00476	0.12735	-0.17801	0.97568	24.8	13111	30
2025-1-4 10:35:28.605	WT901BLE68(96416FE28A17)	0.183	-0.116	0.096	-7.385	317.261	-202.087	-26.64	-11.38	158.06	16.758	-28.714	-53.900	0.00476	0.12735	-0.17801	0.97568	24.8	13111	30
2025-1-4 10:35:28.695	WT901BLE68(96416FE28A17)	1.528	-1.318	-2.459	353.882	1214.722	-232.971	-23.71	40.55	106.95	16.758	-28.714	-53.900	0.00476	0.12735	-0.17801	0.97568	24.8	13111	30
2025-1-4 10:35:28.815	WT901BLE68(96416FE28A17)	-0.623	-5.309	-1.853	428.711	-509.338	-628.540	-103.22	34.13	-47.63	16.758	-28.714	-53.900	0.63498	-0.77225	-0.01389	0.01129	24.8	13111	30
2025-1-4 10:35:28.908	WT901BLE68(96416FE28A17)	2.039	-8.239	-1.047	-735.168	-242.310	-383.850	-129.13	-6.62	32.63	16.758	-28.714	-53.900	0.63498	-0.77225	-0.01389	0.01129	24.8	13111	30
2025-1-4 10:35:29.26	WT901BLE68(96416FE28A17)	-0.236	-7.313	-2.658	-631.714	-1329.773	722.961	96.20	53.03	-11.11	48.804	-29.792	-40.180	0.63498	-0.77225	-0.01389	0.01129	24.8	13111	30
2025-1-4 10:35:29.86	WT901BLE68(96416FE28A17)	0.343	-1.711	-0.612	-36.865	-380.371	561.462	44.72	-29.39	-40.60	48.804	-29.792	-40.180	0.63498	-0.77225	-0.01389	0.01129	24.8	13111	30
2025-1-4 10:35:29.205	WT901BLE68(96416FE28A17)	1.858	-0.958	-0.034	132.874	-79.956	282.715	15.77	-69.93	4.89	48.804	-29.792	-40.180	-0.73962	-0.10269	0.60257	-0.28140	24.8	13111	30
2025-1-4 10:35:29.295	WT901BLE68(96416FE28A17)	0.801	-1.079	0.090	46.387	12.695	166.321	-46.80	-68.69	81.18	48.804	-29.792	-40.180	-0.73962	-0.10269	0.60257	-0.28140	24.8	13111	30
2025-1-4 10:35:29.423	WT901BLE68(96416FE28A17)	-1.153	-0.887	0.669	45.349	253.052	-302.063	-22.93	-63.97	59.39	24.304	-4.410	-54.194	-0.73962	-0.10269	0.60257	-0.28140	24.8	13111	30
2025-1-4 10:35:29.506	WT901BLE68(96416FE28A17)	-0.678	0.343	0.450	338.318	503.967	-295.105	32.82	-23.42	20.63	24.304	-4.410	-54.194	-0.73962	-0.10269	0.60257	-0.28140	24.8	13111	30
2025-1-4 10:35:29.626	WT901BLE68(96416FE28A17)	-0.682	0.858	0.533	134.949	16.541	-89.661	59.44	8.59	24.09	24.304	-4.410	-54.194	-0.84341	-0.48871	-0.20508	-0.08746	24.8	13111	30
2025-1-4 10:35:29.686	WT901BLE68(96416FE28A17)	-0.848	0.538	0.630	40.955	53.162	-145.569	63.93	20.84	20.83	24.304	-4.410	-54.194	-0.84341	-0.48871	-0.20508	-0.08746	24.8	13111	30
2025-1-4 10:35:29.805	WT901BLE68(96416FE28A17)	-1.051	0.407	0.324	148.804	30.029	-119.507	75.45	35.96	27.54	78.106	-25.186	-31.752	-0.84341	-0.48871	-0.20508	-0.08746	24.8	13111	30
2025-1-4 10:35:29.896	WT901BLE68(96416FE28A17)	-1.042	0.715	-0.088	46.814	15.320	-97.229	82.44	45.95	28.91	78.106	-25.186	-31.752	-0.84341	-0.48871	-0.20508	-0.08746	24.8	13111	30
2025-1-4 10:35:30.15	WT901BLE68(96416FE28A17)	-0.818	0.422	-0.000	-7.141	-35.645	-20.752	80.10	52.15	25.99	78.106	-25.186	-31.752	-0.74506	-0.48138	-0.44177	0.13385	24.8	13111	30
2025-1-4 10:35:30.106	WT901BLE68(96416FE28A17)	-0.994	0.261	0.124	11.230	-12.329	11.719	76.01	51.74	20.81	78.106	-25.186	-31.752	-0.74506	-0.48138	-0.44177	0.13385	24.8	13111	30
2025-1-4 10:35:30.225	WT901BLE68(96416FE28A17)	-1.121	0.266	0.274	33.508	-6.836	14.404	77.22	50.40	19.23	76.832	-19.796	-34.202	-0.74506	-0.48138	-0.44177	0.13385	24.8	13111	30
2025-1-4 10:35:30.315	WT901BLE68(96416FE28A17)	-0.981	0.333	0.292	-6.836	21.484	13.672	81.08	50.83	20.53	76.832	-19.796	-34.202	-0.74506	-0.48138	-0.44177	0.13385	24.8	13111	30
2025-1-4 10:35:30.434	WT901BLE68(96416FE28A17)	-0.894	0.254	0.356	-32.410	-20.325	15.381	78.43	50.75	19.18	76.832	-19.796	-34.202	-0.74744	-0.49628	-0.41281	0.15659	24.8	13111	30
2025-1-4 10:35:30.496	WT901BLE68(96416FE28A17)	-0.891	0.198	0.381	-25.940	-14.954	7.690	73.23	50.67	14.38	76.832	-19.796	-34.202	-0.74744	-0.49628	-0.41281	0.15659	24.8	13111	30
2025-1-4 10:35:30.615	WT901BLE68(96416FE28A17)	-0.843	0.219	0.252	-15.564	-15.747	4.883	68.83	50.92	8.32	75.852	-20.776	-35.770	-0.74744	-0.49628	-0.41281	0.15659	24.8	13111	30
2025-1-4 10:35:30.706	WT901BLE68(96416FE28A17)	-0.907	0.262	0.305	-6.287	-7.874	7.751	66.32	51.16	4.28	75.852	-20.776	-35.770	-0.74744	-0.49628	-0.41281	0.15659	24.8	13111	30
2025-1-4 10:35:30.825	WT901BLE68(96416FE28A17)	-0.982	0.316	0.274	7.996	5.066	-11.230	65.26	51.98	1.86	75.852	-20.776	-35.770	-0.75360	-0.47797	-0.38135	0.24100	24.8	13111	30
2025-1-4 10:35:30.917	WT901BLE68(96416FE28A17)	-0.871	0.298	0.358	6.165	-12.268	-4.089	64.50	53.81	-0.54	75.852	-20.776	-35.770	-0.75360	-0.47797	-0.38135	0.24100	24.8	13111	30
2025-1-4 10:35:31.36	WT901BLE68(96416FE28A17)	-0.893	0.341	0.278	6.531	-6.042	0.061	62.75	53.82	-3.74	74.872	-20.874	-37.730	-0.75360	-0.47797	-0.38135	0.24100	24.8	13111	30
2025-1-4 10:35:31.95	WT901BLE68(96416FE28A17)	-0.897	0.321	0.315	5.493	-1.770	1.282	61.89	54.17	-5.12	74.872	-20.874	-37.730	-0.75360	-0.47797	-0.38135	0.24100	24.8	13111	30
2025-1-4 10:35:31.214	WT901BLE68(96416FE28A17)	-0.889	0.279	0.367	6.287	-0.488	-1.770	61.43	54.74	-6.22	74.872	-20.874	-37.730	-0.74698	-0.47342	-0.37088	0.28323	24.8	13111	30
2025-1-4 10:35:31.306	WT901BLE68(96416FE28A17)	-0.794	0.205	0.421	9.644	-11.658	-9.521	60.31	55.54	-8.27	74.872	-20.874	-37.730	-0.74698	-0.47342	-0.37088	0.28323	24.8	13111	30
2025-1-4 10:35:31.426	WT901BLE68(96416FE28A17)	-0.484	-0.276	0.704	23.560	-174.622	-74.341	48.82	55.35	-27.39	65.170	-18.424	-47.040	-0.74698	-0.47342	-0.37088	0.28323	24.8	13111	30
2025-1-4 10:35:31.517	WT901BLE68(96416FE28A17)	-0.855	-0.286	0.725	34.302	-235.718	-192.688	22.59	45.54	-71.90	65.170	-18.424	-47.040	-0.74698	-0.47342	-0.37088	0.28323	24.8	13111	30
2025-1-4 10:35:31.634	WT901BLE68(96416FE28A17)	-0.401	-0.574	1.724	-59.143	-180.298	-221.985	-0.90	31.60	-109.89	65.170	-18.424	-47.040	-0.43253	-0.11206	-0.13800	0.88388	24.8	13111	30
2025-1-4 10:35:31.726	WT901BLE68(96416FE28A17)	-0.181	-0.367	1.331	14.099	-143.433	-165.039	-9.39	16.12	-132.04	65.170	-18.424	-47.040	-0.43253	-0.11206	-0.13800	0.88388	24.8	13111	30
2025-1-4 10:35:31.845	WT901BLE68(96416FE28A17)	0.176	-0.183	0.925	-32.104	-160.889	-105.957	-11.66	0.49	-145.08	3.724	-18.130	-47.236	-0.43253	-0.11206	-0.13800	0.88388	24.8	13111	30
2025-1-4 10:35:31.906	WT901BLE68(96416FE28A17)	0.681	-0.667	1.120	-84.351	-68.604	-182.434	-18.35	-16.19	-157.10	3.724	-18.130	-47.236	-0.43253	-0.11206	-0.13800	0.88388	24.8	13111	30
2025-1-4 10:35:32.24	WT901BLE68(96416FE28A17)	-0.146	-0.271	0.483	-17.944	62.988	-285.767	-15.44	-21.87	-179.97	3.724	-18.130	-47.236	0.26251	0.07336	-0.06213	0.96008	24.8	13111	30
2025-1-4 10:35:32.117	WT901BLE68(96416FE28A17)	-0.020	-0.621	-0.306	152.466	442.017	-377.686	-1.08	-0.61	139.97	3.724	-18.130	-47.236	0.26251	0.07336	-0.06213	0.96008	24.8	13111	30
2025-1-4 10:35:32.234	WT901BLE68(96416FE28A17)	-0.845	-0.716	-1.015	319.763	545.532	-256.470	6.14	53.83	107.84	70.854	-43.610	-1.666	0.26251	0.07336	-0.06213	0.96008	24.8	13111	30
2025-1-4 10:35:32.326	WT901BLE68(96416FE28A17)	-1.135	-2.814	-1.203	209.595	-321.106	-321.350	-43.96	57.54	24.42	70.854	-43.610	-1.666	0.26251	0.07336	-0.06213	0.96008	24.8	13111	30
2025-1-4 10:35:32.446	WT901BLE68(96416FE28A17)	-0.559	-4.970	-0.877	-288.513	-105.591	-469.543	-61.05	13.78	13.06	70.854	-43.610	-1.666	0.63962	-0.70544	-0.28024	0.12070	24.8	13111	30
2025-1-4 10:35:32.506	WT901BLE68(96416FE28A17)	0.754	-9.447	-2.495	-1075.134	-924.255	-13.184	-143.73	1.13	61.16	70.854	-43.610	-1.666	0.63962	-0.70544	-0.28024	0.12070	24.8	13111	30
2025-1-4 10:35:32.628	WT901BLE68(96416FE28A17)	-0.429	-3.080	-0.931	-151.245	-706.421	822.693	50.65	23.99	-61.46	23.520	-19.012	-48.412	0.63962	-0.70544	-0.28024	0.12070	24.8	13111	30
2025-1-4 10:35:32.716	WT901BLE68(96416FE28A17)	2.042	-1.149	-0.546	134.338	-182.190	395.630	44.03	-41.22	-55.47	23.520	-19.012	-48.412	0.63962	-0.70544	-0.28024	0.12070	24.8	13111	30
2025-1-4 10:35:32.834	WT901BLE68(96416FE28A17)	0.835	-0.853	-0.372	45.044	-48.279	186.279	25.59	-74.28	-19.18	23.520	-19.012	-48.412	-0.80423	-0.05920	0.59042	-0.03189	24.8	13111	30
2025-1-4 10:35:32.926	WT901BLE68(96416FE28A17)	-0.313	-0.540	0.662	-42.786	190.491	-210.938	17.60	-68.83	-10.90	23.520	-19.012	-48.412	-0.80423	-0.05920	0.59042	-0.03189	24.8	13111	30
2025-1-4 10:35:33.46	WT901BLE68(96416FE28A17)	-0.173	0.050	0.937	149.353	259.644	-240.173	38.07	-37.46	-21.32	27.342	-15.092	-57.036	-0.80423	-0.05920	0.59042	-0.03189	24.8	13111	30
2025-1-4 10:35:33.136	WT901BLE68(96416FE28A17)	-0.894	0.411	0.762	150.024	204.712	-147.888	51.75	-12.51	-14.33	27.342	-15.092	-57.036	-0.80423	-0.05920	0.59042	-0.03189	24.8	13111	30
2025-1-4 10:35:33.260	WT901BLE68(96416FE28A17)	-0.788	0.630	0.776	156.372	223.572	-114.868	65.82	10.33	5.25	27.342	-15.092	-57.036	-0.77158	-0.59637	-0.22067	0.01413	24.8	13111	30
2025-1-4 10:35:33.316	WT901BLE68(96416FE28A17)	-0.858	0.711	0.638	96.680	7.935	-82.153	78.54	21.34	15.11	27.342	-15.092	-57.036	-0.77158	-0.59637	-0.22067	0.01413	24.8	13111	30
2025-1-4 10:35:33.436	WT901BLE68(96416FE28A17)	-0.854	0.750	0.442	27.222	-46.326	-19.104	83.22	26.80	17.84	27.342	-15.092	-57.036	-0.77158	-0.59637	-0.22067	0.01413	24.8	13111	30
2025-1-4 10:35:33.530	WT901BLE68(96416FE28A17)	-0.766	0.624	0.237	13.916	-13.855	-17.761	82.45	28.27	16.59	69.776	-38.710	-39.690	-0.77158	-0.59637	-0.22067	0.01413	24.8	13111	30
2025-1-4 10:35:33.647	WT901BLE68(96416FE28A17)	-0.737	0.636	0.292	-9.521	-36.377	17.151	80.97	29.45	16.14	69.776	-38.710	-39.690	-0.75665	-0.58990	-0.27539	0.05923	24.8	13111	30
2025-1-4 10:35:33.736	WT901BLE68(96416FE28A17)	-0.702	0.587	0.273	1.038	-8.911	14.404	79.85	29.05	15.67	69.776	-38.710	-39.690	-0.75665	-0.58990	-0.27539	0.05923	24.8	13111	30
2025-1-4 10:35:33.862	WT901BLE68(96416FE28A17)	-0.754	0.560	0.307	-4.822	-3.906	5.005	78.97	29.08	15.70	68.012	-39.788	-41.062	-0.75665	-0.58990	-0.27539	0.05923	24.8	13111	30
2025-1-4 10:35:33.946	WT901BLE68(96416FE28A17)	-0.781	0.618	0.318	-3.113	-9.583	-1.343	77.68	30.19	15.65	68.012	-39.788	-41.062	-0.75665	-0.58990	-0.27539	0.05923	24.8	13111	30
2025-1-4 10:35:34.36	WT901BLE68(96416FE28A17)	-0.762	0.586	0.333	-6.470	-16.418	2.319	75.95	31.08	14.88	68.012	-39.788	-41.062	-0.75665	-0.58990	-0.27539	0.05923	24.8	13111	30
2025-1-4 10:35:34.125	WT901BLE68(96416FE28A17)	-0.758	0.589	0.358	-2.380	-11.292	2.563	74.30	31.60	14.01	68.012	-39.788	-41.062	-0.78125	-0.55023	-0.28625	0.06964	24.8	13111	30
2025-1-4 10:35:34.246	WT901BLE68(96416FE28A17)	-0.742	0.576	0.337	-0.854	-12.085	2.747	72.73	32.09	12.89	68.012	-39.788	-41.062	-0.78125	-0.55023	-0.28625	0.06964	24.8	13111	30
2025-1-4 10:35:34.336	WT901BLE68(96416FE28A17)	-0.726	0.576	0.365	-5.432	-1.038	-0.061	71.48	32.76	12.54	66.150	-39.396	-43.120	-0.78125	-0.55023	-0.28625	0.06964	24.8	13111	30
2025-1-4 10:35:34.462	WT901BLE68(96416FE28A17)	-0.732	0.553	0.366	-2.625	-4.700	-0.916	70.21	33.44	12.04	66.150	-39.396	-43.120	-0.79938	-0.51633	-0.29495	0.08527	24.8	13111	30
2025-1-4 10:35:34.548	WT901BLE68(96416FE28A17)	-0.798	0.550	0.471	1.160	-14.709	-2.136	69.08	34.10	11.53	66.150	-39.396	-43.120	-0.79938	-0.51633	-0.29495	0.08527	24.8	13111	30
2025-1-4 10:35:34.665	WT901BLE68(96416FE28A17)	-0.729	0.344	0.788	32.654	-48.584	-1.770	67.61	33.50	9.93	62.328	-41.356	-45.178	-0.79938	-0.51633	-0.29495	0.08527	24.8	13111	30
2025-1-4 10:35:34.726	WT901BLE68(96416FE28A17)	-0.557	0.131	0.625	80.261	-94.177	-41.321	68.89	31.92	4.78	62.328	-41.356	-45.178	-0.79938	-0.51633	-0.29495	0.08527	24.8	13111	30
2025-1-4 10:35:34.875	WT901BLE68(96416FE28A17)	-0.649	-0.040	0.423	29.175	-228.271	-142.517	63.44	36.17	-22.55	62.328	-41.356	-45.178	-0.79938	-0.51633	-0.29495	0.08527	24.8	13111	30
2025-1-4 10:35:34.935	WT901BLE68(96416FE28A17)	-0.664	0.180	1.496	-96.802	-282.776	-202.271	33.46	35.12	-69.35	62.328	-41.356	-45.178	-0.69766	-0.37897	-0.07846	0.60281	24.8	13111	30
2025-1-4 10:35:35.64	WT901BLE68(96416FE28A17)	-0.249	-0.049	1.843	-71.838	-226.196	-142.273	10.16	16.62	-101.92	14.504	-27.244	-53.116	-0.69766	-0.37897	-0.07846	0.60281	24.8	13111	30
2025-1-4 10:35:35.146	WT901BLE68(96416FE28A17)	0.215	-0.069	1.140	-175.171	-214.600	-65.979	-3.51	-1.44	-116.89	14.504	-27.244	-53.116	-0.69766	-0.37897	-0.07846	0.60281	24.8	13111	30
2025-1-4 10:35:35.265	WT901BLE68(96416FE28A17)	0.259	-0.259	0.576	-101.990	-55.298	-76.294	-15.77	-12.18	-124.27	14.504	-27.244	-53.116	-0.33081	0.21729	-0.11496	0.91107	24.8	13111	30
2025-1-4 10:35:35.326	WT901BLE68(96416FE28A17)	0.341	-0.192	0.432	-92.529	7.629	-182.861	-22.20	-19.26	-138.50	14.504	-27.244	-53.116	-0.33081	0.21729	-0.11496	0.91107	24.8	13111	30
2025-1-4 10:35:35.446	WT901BLE68(96416FE28A17)	-0.004	-0.007	0.076	16.907	254.150	-287.170	-15.85	-14.82	-169.83	14.504	-27.244	-53.116	-0.33081	0.21729	-0.11496	0.91107	24.8	13111	30
2025-1-4 10:35:35.536	WT901BLE68(96416FE28A17)	3.204	-0.895	-1.252	250.183	878.357	-331.848	-8.81	24.85	148.19	28.812	-41.454	-51.058	-0.33081	0.21729	-0.11496	0.91107	24.8	13111	30
2025-1-4 10:35:35.664	WT901BLE68(96416FE28A17)	-1.535	-3.985	-1.202	530.334	4.211	-466.248	-125.55	47.55	-28.47	28.812	-41.454	-51.058	-0.33081	0.21729	-0.11496	0.91107	24.8	13111	30
2025-1-4 10:35:35.746	WT901BLE68(96416FE28A17)	-1.339	-8.620	-0.924	-416.382	-479.553	-563.782	-100.17	-5.87	36.28	28.812	-41.454	-51.058	0.58008	-0.72470	-0.33972	0.15106	24.8	13111	30
2025-1-4 10:35:35.869	WT901BLE68(96416FE28A17)	0.323	-9.083	-2.025	-1196.899	-1214.600	38.879	163.76	9.39	75.04	56.252	-37.436	-27.146	0.58008	-0.72470	-0.33972	0.15106	24.8	13111	30
2025-1-4 10:35:35.968	WT901BLE68(96416FE28A17)	1.387	-5.274	-1.563	-391.174	-447.815	854.980	54.64	-30.59	-3.28	56.252	-37.436	-27.146	0.58008	-0.72470	-0.33972	0.15106	24.8	13111	30
2025-1-4 10:35:36.75	WT901BLE68(96416FE28A17)	1.068	-1.425	-0.227	-15.381	-94.727	296.753	-65.26	-67.34	113.72	56.252	-37.436	-27.146	-0.59109	-0.10538	0.64636	-0.47070	24.8	13111	30
2025-1-4 10:35:36.136	WT901BLE68(96416FE28A17)	0.584	-0.922	0.365	3.906	118.408	-67.993	-72.67	-59.78	122.49	56.252	-37.436	-27.146	-0.59109	-0.10538	0.64636	-0.47070	24.8	13111	30
2025-1-4 10:35:36.256	WT901BLE68(96416FE28A17)	-0.892	-0.533	0.622	154.846	350.098	-260.559	-25.65	-57.86	75.80	56.252	-37.436	-27.146	-0.59109	-0.10538	0.64636	-0.47070	24.8	13111	30
2025-1-4 10:35:36.346	WT901BLE68(96416FE28A17)	-0.983	0.157	0.425	350.037	218.811	-274.902	27.13	-21.45	40.87	41.650	-18.130	-56.448	-0.59109	-0.10538	0.64636	-0.47070	24.8	13111	30
2025-1-4 10:35:36.465	WT901BLE68(96416FE28A17)	-1.087	0.996	0.536	214.233	23.376	-164.063	57.88	5.02	34.47	41.650	-18.130	-56.448	-0.59109	-0.10538	0.64636	-0.47070	24.8	13111	30
2025-1-4 10:35:36.557	WT901BLE68(96416FE28A17)	-0.841	0.922	0.313	154.541	33.264	-108.154	75.34	20.13	31.48	41.650	-18.130	-56.448	-0.77264	-0.54764	-0.30545	-0.09842	24.8	13111	30
2025-1-4 10:35:36.675	WT901BLE68(96416FE28A17)	-0.948	0.803	0.318	14.893	-26.062	-43.457	83.13	28.67	32.05	41.650	-18.130	-56.448	-0.77264	-0.54764	-0.30545	-0.09842	24.8	13111	30
2025-1-4 10:35:36.736	WT901BLE68(96416FE28A17)	-0.730	0.705	0.253	-18.005	-86.243	-7.935	78.43	30.75	26.50	75.362	-35.574	-33.026	-0.77264	-0.54764	-0.30545	-0.09842	24.8	13111	30
2025-1-4 10:35:36.855	WT901BLE68(96416FE28A17)	-0.752	0.573	0.085	19.348	-42.053	17.761	76.33	30.33	21.46	75.362	-35.574	-33.026	-0.77264	-0.54764	-0.30545	-0.09842	24.8	13111	30
2025-1-4 10:35:36.947	WT901BLE68(96416FE28A17)	-0.734	0.638	0.183	-19.592	-2.930	1.099	75.51	30.01	20.23	75.362	-35.574	-33.026	-0.77960	-0.54620	-0.30539	0.02188	24.8	13111	30
2025-1-4 10:35:37.66	WT901BLE68(96416FE28A17)	-0.737	0.558	0.315	-39.246	-16.296	9.155	70.62	30.01	18.58	75.362	-35.574	-33.026	-0.77960	-0.54620	-0.30539	0.02188	24.8	13111	30
2025-1-4 10:35:37.155	WT901BLE68(96416FE28A17)	-0.729	0.602	0.367	-16.724	-8.545	14.954	68.32	30.25	19.43	70.658	-34.398	-40.670	-0.77960	-0.54620	-0.30539	0.02188	24.8	13111	30
2025-1-4 10:35:37.276	WT901BLE68(96416FE28A17)	-0.647	0.508	0.366	4.578	-6.409	12.512	67.17	29.69	19.62	70.658	-34.398	-40.670	-0.77960	-0.54620	-0.30539	0.02188	24.8	13111	30
2025-1-4 10:35:37.366	WT901BLE68(96416FE28A17)	-0.717	0.534	0.407	-1.404	-15.259	-8.240	66.10	29.81	18.78	70.658	-34.398	-40.670	-0.82312	-0.48251	-0.29919	0.00739	24.8	13111	30
2025-1-4 10:35:37.485	WT901BLE68(96416FE28A17)	-0.784	0.495	0.495	-20.142	-20.874	-37.476	62.00	31.29	16.03	70.658	-34.398	-40.670	-0.82312	-0.48251	-0.29919	0.00739	24.8	13111	30
2025-1-4 10:35:37.548	WT901BLE68(96416FE28A17)	-0.513	0.485	0.610	-22.095	-25.452	-35.950	56.29	34.63	13.56	67.816	-29.988	-44.884	-0.82312	-0.48251	-0.29919	0.00739	24.8	13111	30
2025-1-4 10:35:37.666	WT901BLE68(96416FE28A17)	-0.419	0.373	0.535	-21.729	-24.780	-64.697	50.41	37.13	10.27	67.816	-29.988	-44.884	-0.82312	-0.48251	-0.29919	0.00739	24.8	13111	30
